"build","experimentName","subject","date","time","blockcode","trialcode","list.Condition.currentvalue","cond","condcolor","percentTrialsStay","practiceblock","cannon","driftConc","blocknum","trialnum","StaySwitch","TAC","hitmiss","angmu","outcome","placementAngle","prev_placementAngle","trial.placeshield_mouse.latency","cannonballs_caught","cannonballs_missed","totalearnings","angleup","angledown","outcomeindex","UP","distmean","shield_size","blockearnings","picture.wall.stimulusonset","shape.responsearea.stimulusonset","picture.cannonball.stimulusonset","picture.shield_center.stimulusonset","picture.shield.stimulusonset","picture.shield.currentitem"
"6.4.2","Cannonball Task","1","2021-10-01","16:54:42","InstructionBlock","Phase_starts","","0","0","0.8599999999999999867","1","1","18.7749999999999985789","0","0","0","0","0","0","0","0","0","0","0","0","0","3","-3","0","0","0","3","0","-1","-1","-1","-1","-1","Arc5.png"
"6.4.2","Cannonball Task","1","2021-10-01","16:54:42","InstructionBlock","Instructions_BeginTask","","0","0","0.8599999999999999867","1","1","18.7749999999999985789","0","0","0","0","0","0","0","0","0","0","0","0","0","3","-3","0","0","0","3","0","-1","-1","-1","-1","-1","Arc5.png"
"6.4.2","Cannonball Task","1","2021-10-01","16:54:42","InstructionBlock","Instructions_PlaceShield_delay","","0","0","0.8599999999999999867","1","1","18.7749999999999985789","0","0","0","0","0","0","0","0","0","0","0","0","0","3","-3","0","0","0","3","0","1","1","-1","1","-1","Arc5.png"
"6.4.2","Cannonball Task","1","2021-10-01","16:54:42","InstructionBlock","Instructions_PlaceShield_delay","","0","0","0.8599999999999999867","1","1","18.7749999999999985789","0","0","0","0","0","0","0","0","0","0","0","0","0","3","-3","0","0","0","3","0","2","2","-1","2","-1","Arc5.png"
"6.4.2","Cannonball Task","1","2021-10-01","16:54:42","InstructionBlock","Instructions_PlaceShield_delay","","0","0","0.8599999999999999867","1","1","18.7749999999999985789","0","0","0","0","0","0","0","0","0","0","0","0","0","3","-3","0","0","0","3","0","1","1","-1","1","-1","Arc5.png"
"6.4.2","Cannonball Task","1","2021-10-01","16:54:42","InstructionBlock","lockin","","0","0","0.8599999999999999867","1","1","18.7749999999999985789","0","0","0","0","0","0","0","0","0","0","0","0","0","3","-3","0","0","0","3","0","1","1","-1","1","-1","Arc5.png"
"6.4.2","Cannonball Task","1","2021-10-01","16:54:42","InstructionBlock","Instructions_PlaceShield","","0","0","0.8599999999999999867","1","1","18.7749999999999985789","0","0","0","0","0","0","0","360","0","0","0","0","0","3","-3","0","0","0","3","0","8","8","-1","1","-1","Arc5.png"
"6.4.2","Cannonball Task","1","2021-10-01","16:54:42","InstructionBlock","Instructions_CannonOutcome","","0","0","0.8599999999999999867","1","1","18.7749999999999985789","0","0","0","0","0","0","0","360","0","0","0","0","0","3","-3","0","0","0","3","0","10","8","10","10","-1","Arc5.png"
"6.4.2","Cannonball Task","1","2021-10-01","16:54:42","InstructionBlock","cannon_outcome","","0","0","0.8599999999999999867","1","1","18.7749999999999985789","0","0","0","0","1","0","0","360","0","0","0","0","0","3","-3","3","0","0","3","0","10","8","10","10","-1","Arc5.png"
"6.4.2","Cannonball Task","1","2021-10-01","16:54:42","InstructionBlock","Instructions_RevealShield","","0","0","0.8599999999999999867","2","1","18.7749999999999985789","0","0","0","0","1","0","0","360","0","0","0","0","0","3","-3","3","0","0","3","0","10","8","10","10","-1","Arc5.png"
"6.4.2","Cannonball Task","1","2021-10-01","16:54:42","InstructionBlock","Instructions_RevealShield","","0","0","0.8599999999999999867","2","1","18.7749999999999985789","0","0","0","0","1","0","0","360","0","0","0","0","0","3","-3","3","0","0","3","0","10","8","10","10","-1","Arc5.png"
"6.4.2","Cannonball Task","1","2021-10-01","16:54:42","InstructionBlock","Instructions_RevealShield","","0","0","0.8599999999999999867","2","1","18.7749999999999985789","0","0","0","0","1","0","0","360","0","0","0","0","0","3","-3","3","0","0","3","0","10","8","10","10","-1","Arc5.png"
"6.4.2","Cannonball Task","1","2021-10-01","16:54:42","InstructionBlock","mainloop","","0","0","0.8599999999999999867","2","1","18.7749999999999985789","0","0","0","0","1","0","0","360","0","0","0","0","0","3","-3","3","0","0","3","0","1","8","10","10","-1","Arc5.png"
"6.4.2","Cannonball Task","1","2021-10-01","16:54:42","InstructionBlock","placeshield_mouse","","0","0","0.8599999999999999867","2","1","18.7749999999999985789","0","0","0","0","1","0","0","0.8069294551023743489","360","1104","0","0","0","3","-3","3","0","0","3","0","1","1","10","10","-1","Arc5.png"
"6.4.2","Cannonball Task","1","2021-10-01","16:54:42","InstructionBlock","revealshield","","0","0","0.8599999999999999867","2","1","18.7749999999999985789","0","0","0","0","1","0","0","0.8069294551023743489","360","1104","0","0","0","27.8069294551023737938","-26.1930705448976262062","3","0.8069294551023631357","0","54","0","1","1","1","1","1","Arc54.png"
"6.4.2","Cannonball Task","1","2021-10-01","16:54:42","InstructionBlock","cannon_outcome","","0","0","0.8599999999999999867","2","1","18.7749999999999985789","0","0","0","0","1","0","0","0.8069294551023743489","360","1104","1","0","0","27.8069294551023737938","333.8069294551023631357","5","0.8069294551023631357","0","54","0","1","1","1","1","1","Arc54.png"
"6.4.2","Cannonball Task","1","2021-10-01","16:54:42","InstructionBlock","mainloop","","0","0","0.8599999999999999867","2","1","18.7749999999999985789","0","0","0","0","1","0","0","0.8069294551023743489","360","1104","1","0","0","27.8069294551023737938","333.8069294551023631357","5","0.8069294551023631357","0","54","0","0","1","1","1","1","Arc54.png"
"6.4.2","Cannonball Task","1","2021-10-01","16:54:42","InstructionBlock","placeshield_mouse","","0","0","0.8599999999999999867","2","1","18.7749999999999985789","0","0","0","0","1","0","0","358.090847567003606855","0.8069294551023743489","886","1","0","0","27.8069294551023737938","333.8069294551023631357","5","0.8069294551023631357","0","54","0","1","1","1","1","1","Arc54.png"
"6.4.2","Cannonball Task","1","2021-10-01","16:54:42","InstructionBlock","revealshield","","0","0","0.8599999999999999867","2","1","18.7749999999999985789","0","0","0","0","1","0","0","358.090847567003606855","0.8069294551023743489","886","1","0","0","370.590847567003606855","345.590847567003606855","5","2.7160818880987562807","0","25","0","1","1","1","1","1","Arc25.png"
"6.4.2","Cannonball Task","1","2021-10-01","16:54:42","InstructionBlock","cannon_outcome","","0","0","0.8599999999999999867","2","1","18.7749999999999985789","0","0","0","0","1","0","0","358.090847567003606855","0.8069294551023743489","886","2","0","0","10.590847567003606855","345.590847567003606855","5","2.7160818880987562807","0","25","0","1","1","1","1","1","Arc25.png"
"6.4.2","Cannonball Task","1","2021-10-01","16:54:42","InstructionBlock","PracticeBlock_CannonMoves","","0","0","0.8599999999999999867","3","1","18.7749999999999985789","0","0","0","0","1","0","0","358.090847567003606855","0.8069294551023743489","886","2","0","0","10.590847567003606855","345.590847567003606855","5","2.7160818880987562807","0","25","0","1","1","1","1","1","Arc25.png"
"6.4.2","Cannonball Task","1","2021-10-01","16:54:42","InstructionBlock","PracticeBlock_CannonNotAccurate","","0","0","0.8599999999999999867","3","1","18.7749999999999985789","0","0","0","0","1","0","0","358.090847567003606855","0.8069294551023743489","886","2","0","0","10.590847567003606855","345.590847567003606855","5","2.7160818880987562807","0","25","0","1","1","1","1","1","Arc25.png"
"6.4.2","Cannonball Task","1","2021-10-01","16:54:42","InstructionBlock","ClicktoContinue","","0","0","0.8599999999999999867","3","1","18.7749999999999985789","0","0","0","0","1","0","0","358.090847567003606855","0.8069294551023743489","886","2","0","0","10.590847567003606855","345.590847567003606855","5","2.7160818880987562807","0","25","0","1","1","1","1","1","Arc25.png"
"6.4.2","Cannonball Task","1","2021-10-01","16:54:42","InstructionBlock","mainloop","","0","0","0.8599999999999999867","3","1","18.7749999999999985789","0","0","0","0","1","60.1892034849592505452","60.1892034849592505452","358.090847567003606855","0.8069294551023743489","886","2","0","0","10.590847567003606855","345.590847567003606855","5","2.7160818880987562807","0","25","0","2","1","1","1","1","Arc25.png"
"6.4.2","Cannonball Task","1","2021-10-01","16:54:42","InstructionBlock","placeshield_mouse","","0","0","0.8599999999999999867","3","1","18.7749999999999985789","0","0","0","0","1","60.1892034849592505452","60.1892034849592505452","62.0885010628354905293","358.090847567003606855","828","2","0","0","10.590847567003606855","345.590847567003606855","5","2.7160818880987562807","0","25","0","1","1","1","1","1","Arc25.png"
"6.4.2","Cannonball Task","1","2021-10-01","16:54:42","InstructionBlock","revealshield","","0","0","0.8599999999999999867","3","1","18.7749999999999985789","0","0","0","0","1","60.1892034849592505452","60.1892034849592505452","62.0885010628354905293","358.090847567003606855","828","2","0","0","90.5885010628354905293","33.5885010628354905293","5","63.9976534958318552526","0","57","0","2","1","2","2","2","Arc57.png"
"6.4.2","Cannonball Task","1","2021-10-01","16:54:42","InstructionBlock","cannon_outcome","","0","0","0.8599999999999999867","3","1","18.7749999999999985789","0","0","0","0","1","60.1892034849592505452","60.1892034849592505452","62.0885010628354905293","358.090847567003606855","828","3","0","0","90.5885010628354905293","33.5885010628354905293","5","63.9976534958318552526","0","57","0","2","1","2","2","2","Arc57.png"
"6.4.2","Cannonball Task","1","2021-10-01","16:54:42","InstructionBlock","mainloop","","0","0","0.8599999999999999867","3","1","18.7749999999999985789","0","0","0","0","1","8.1568580419190368502","8.1568580419190368502","62.0885010628354905293","358.090847567003606855","828","3","0","0","90.5885010628354905293","33.5885010628354905293","5","63.9976534958318552526","0","57","0","1","1","2","2","2","Arc57.png"
"6.4.2","Cannonball Task","1","2021-10-01","16:54:42","InstructionBlock","placeshield_mouse","","0","0","0.8599999999999999867","3","1","18.7749999999999985789","0","0","0","0","1","8.1568580419190368502","8.1568580419190368502","8.5579651234582296837","62.0885010628354905293","899","3","0","0","90.5885010628354905293","33.5885010628354905293","5","63.9976534958318552526","0","57","0","1","1","2","2","2","Arc57.png"
"6.4.2","Cannonball Task","1","2021-10-01","16:54:42","InstructionBlock","revealshield","","0","0","0.8599999999999999867","3","1","18.7749999999999985789","0","0","0","0","1","8.1568580419190368502","8.1568580419190368502","8.5579651234582296837","62.0885010628354905293","899","3","0","0","36.5579651234582314601","-19.4420348765417685399","5","53.5305359393772590693","0","56","0","1","1","1","2","1","Arc56.png"
"6.4.2","Cannonball Task","1","2021-10-01","16:54:42","InstructionBlock","cannon_outcome","","0","0","0.8599999999999999867","3","1","18.7749999999999985789","0","0","0","0","1","8.1568580419190368502","8.1568580419190368502","8.5579651234582296837","62.0885010628354905293","899","4","0","0","36.5579651234582314601","340.5579651234582456709","5","53.5305359393772590693","0","56","0","1","1","1","2","1","Arc56.png"
"6.4.2","Cannonball Task","1","2021-10-01","16:54:42","InstructionBlock","mainloop","","0","0","0.8599999999999999867","3","1","18.7749999999999985789","0","0","0","0","1","279.2929851820908879745","279.2929851820908879745","8.5579651234582296837","62.0885010628354905293","899","4","0","0","36.5579651234582314601","340.5579651234582456709","5","53.5305359393772590693","0","56","0","1","1","1","2","1","Arc56.png"
"6.4.2","Cannonball Task","1","2021-10-01","16:54:42","InstructionBlock","placeshield_mouse","","0","0","0.8599999999999999867","3","1","18.7749999999999985789","0","0","0","0","1","279.2929851820908879745","279.2929851820908879745","280.3797102495677791012","8.5579651234582296837","835","4","0","0","36.5579651234582314601","340.5579651234582456709","5","53.5305359393772590693","0","56","0","1","1","1","2","1","Arc56.png"
"6.4.2","Cannonball Task","1","2021-10-01","16:54:42","InstructionBlock","revealshield","","0","0","0.8599999999999999867","3","1","18.7749999999999985789","0","0","0","0","1","279.2929851820908879745","279.2929851820908879745","280.3797102495677791012","8.5579651234582296837","835","4","0","0","289.3797102495677791012","271.3797102495677791012","5","88.1782548738904665697","0","18","0","1","1","1","2","1","Arc18.png"
"6.4.2","Cannonball Task","1","2021-10-01","16:54:42","InstructionBlock","cannon_outcome","","0","0","0.8599999999999999867","3","1","18.7749999999999985789","0","0","0","0","1","279.2929851820908879745","279.2929851820908879745","280.3797102495677791012","8.5579651234582296837","835","5","0","0","289.3797102495677791012","271.3797102495677791012","5","88.1782548738904665697","0","18","0","1","1","1","2","1","Arc18.png"
"6.4.2","Cannonball Task","1","2021-10-01","16:54:42","InstructionBlock","EndPractice","","CHANGEPOINT","0","0.8599999999999999867","4","1","18.7749999999999985789","0","0","0","0","1","279.2929851820908879745","279.2929851820908879745","280.3797102495677791012","8.5579651234582296837","835","0","0","2.5","289.3797102495677791012","271.3797102495677791012","5","88.1782548738904665697","0","18","2.5","1","1","1","2","1","Arc18.png"
"6.4.2","Cannonball Task","1","2021-10-01","16:54:42","InstructionBlock","EndPractice","","CHANGEPOINT","0","0.8599999999999999867","4","1","18.7749999999999985789","0","0","0","0","1","279.2929851820908879745","279.2929851820908879745","280.3797102495677791012","8.5579651234582296837","835","0","0","2.5","289.3797102495677791012","271.3797102495677791012","5","88.1782548738904665697","0","18","0","1","1","1","2","1","Arc18.png"
"6.4.2","Cannonball Task","1","2021-10-01","16:54:42","InstructionBlock","EndPractice","","CHANGEPOINT","0","0.8599999999999999867","4","1","18.7749999999999985789","0","0","0","0","1","279.2929851820908879745","279.2929851820908879745","280.3797102495677791012","8.5579651234582296837","835","0","0","2.5","289.3797102495677791012","271.3797102495677791012","5","88.1782548738904665697","0","18","0","1","1","1","2","1","Arc18.png"
"6.4.2","Cannonball Task","1","2021-10-01","16:54:42","begin_round","Phase_starts","ODDBALL","ODDBALL","BLUE","0.8599999999999999867","4","1","18.7749999999999985789","0","0","0","0","1","279.2929851820908879745","279.2929851820908879745","280.3797102495677791012","8.5579651234582296837","835","0","0","2.5","289.3797102495677791012","271.3797102495677791012","5","88.1782548738904665697","0","18","0","1","1","1","2","1","Arc18.png"
"6.4.2","Cannonball Task","1","2021-10-01","16:54:42","begin_round","mainloop","ODDBALL","ODDBALL","BLUE","0.8599999999999999867","4","1","18.7749999999999985789","0","0","0","0","1","181.8529667917579502046","164.8352966375390451503","280.3797102495677791012","8.5579651234582296837","835","0","0","2.5","289.3797102495677791012","271.3797102495677791012","5","88.1782548738904665697","0","18","0","1","1","1","2","1","Arc18.png"
"6.4.2","Cannonball Task","1","2021-10-01","16:54:42","begin_round","placeshield_mouse","ODDBALL","ODDBALL","BLUE","0.8599999999999999867","4","1","18.7749999999999985789","0","0","0","0","1","181.8529667917579502046","164.8352966375390451503","184.1247666061423728934","280.3797102495677791012","912","0","0","2.5","289.3797102495677791012","271.3797102495677791012","5","88.1782548738904665697","0","18","0","2","2","1","2","1","Arc18.png"
"6.4.2","Cannonball Task","1","2021-10-01","16:54:42","begin_round","revealshield","ODDBALL","ODDBALL","BLUE","0.8599999999999999867","4","1","18.7749999999999985789","0","0","0","0","1","181.8529667917579502046","164.8352966375390451503","184.1247666061423728934","280.3797102495677791012","912","0","0","2.5","196.1247666061423728934","172.1247666061423728934","5","96.2549436434254062078","0","24","0","1","2","1","3","1","Arc24.png"
"6.4.2","Cannonball Task","1","2021-10-01","16:54:42","begin_round","cannon_outcome","ODDBALL","ODDBALL","BLUE","0.8599999999999999867","4","1","18.7749999999999985789","0","0","0","0","0","181.8529667917579502046","164.8352966375390451503","184.1247666061423728934","280.3797102495677791012","912","0","1","2.5","196.1247666061423728934","172.1247666061423728934","6","96.2549436434254062078","0","24","0","1","2","1","3","1","Arc24.png"
"6.4.2","Cannonball Task","1","2021-10-01","16:54:42","begin_round","mainloop","ODDBALL","ODDBALL","BLUE","0.8599999999999999867","4","1","18.7749999999999985789","0","0","0","0","0","181.2318709923033281939","218.8568117967599846452","184.1247666061423728934","280.3797102495677791012","912","0","1","2.5","196.1247666061423728934","172.1247666061423728934","6","96.2549436434254062078","0","24","0","0","2","1","3","1","Arc24.png"
"6.4.2","Cannonball Task","1","2021-10-01","16:54:42","begin_round","placeshield_mouse","ODDBALL","ODDBALL","BLUE","0.8599999999999999867","4","1","18.7749999999999985789","0","0","0","0","0","181.2318709923033281939","218.8568117967599846452","178.8655783690228986416","184.1247666061423728934","693","0","1","2.5","196.1247666061423728934","172.1247666061423728934","6","96.2549436434254062078","0","24","0","1","1","1","3","1","Arc24.png"
"6.4.2","Cannonball Task","1","2021-10-01","16:54:42","begin_round","revealshield","ODDBALL","ODDBALL","BLUE","0.8599999999999999867","4","1","18.7749999999999985789","0","0","0","0","0","181.2318709923033281939","218.8568117967599846452","178.8655783690228986416","184.1247666061423728934","693","0","1","2.5","208.3655783690228986416","149.3655783690228986416","6","5.2591882371194742518","0","59","0","1","1","1","2","1","Arc59.png"
"6.4.2","Cannonball Task","1","2021-10-01","16:54:42","begin_round","cannon_outcome","ODDBALL","ODDBALL","BLUE","0.8599999999999999867","4","1","18.7749999999999985789","0","0","0","0","0","181.2318709923033281939","218.8568117967599846452","178.8655783690228986416","184.1247666061423728934","693","0","2","2.5","208.3655783690228986416","149.3655783690228986416","6","5.2591882371194742518","0","59","0","1","1","1","2","1","Arc59.png"
"6.4.2","Cannonball Task","1","2021-10-01","16:54:42","begin_round","mainloop","ODDBALL","ODDBALL","BLUE","0.8599999999999999867","4","1","18.7749999999999985789","0","0","0","0","0","181.1078086492320267098","158.1943247821511988604","178.8655783690228986416","184.1247666061423728934","693","0","2","2.5","208.3655783690228986416","149.3655783690228986416","6","5.2591882371194742518","0","59","0","0","1","1","2","1","Arc59.png"
"6.4.2","Cannonball Task","1","2021-10-01","16:54:42","begin_round","placeshield_mouse","ODDBALL","ODDBALL","BLUE","0.8599999999999999867","4","1","18.7749999999999985789","0","0","0","0","0","181.1078086492320267098","158.1943247821511988604","186.5601964005713000461","178.8655783690228986416","248","0","2","2.5","208.3655783690228986416","149.3655783690228986416","6","5.2591882371194742518","0","59","0","1","1","1","2","1","Arc59.png"
"6.4.2","Cannonball Task","1","2021-10-01","16:54:42","begin_round","revealshield","ODDBALL","ODDBALL","BLUE","0.8599999999999999867","4","1","18.7749999999999985789","0","0","0","0","0","181.1078086492320267098","158.1943247821511988604","186.5601964005713000461","178.8655783690228986416","248","0","2","2.5","196.0601964005713000461","177.0601964005713000461","6","7.6946180315484014045","0","19","0","1","1","1","3","1","Arc19.png"
"6.4.2","Cannonball Task","1","2021-10-01","16:54:42","begin_round","cannon_outcome","ODDBALL","ODDBALL","BLUE","0.8599999999999999867","4","1","18.7749999999999985789","0","0","0","0","0","181.1078086492320267098","158.1943247821511988604","186.5601964005713000461","178.8655783690228986416","248","0","3","2.5","196.0601964005713000461","177.0601964005713000461","6","7.6946180315484014045","0","19","0","1","1","1","3","1","Arc19.png"
"6.4.2","Cannonball Task","1","2021-10-01","16:54:42","begin_round","Reminder","ODDBALL","ODDBALL","BLUE","0.8599999999999999867","4","1","18.7749999999999985789","0","0","0","0","0","181.1078086492320267098","158.1943247821511988604","186.5601964005713000461","178.8655783690228986416","248","0","3","2.5","196.0601964005713000461","177.0601964005713000461","6","7.6946180315484014045","0","19","0","1","1","1","3","1","Arc19.png"
"6.4.2","Cannonball Task","1","2021-10-01","16:54:42","begin_round","mainloop","ODDBALL","ODDBALL","BLUE","0.8599999999999999867","4","1","18.7749999999999985789","0","0","0","0","0","177.9444086166484169098","168.2818916204446111351","186.5601964005713000461","178.8655783690228986416","248","0","3","2.5","196.0601964005713000461","177.0601964005713000461","6","7.6946180315484014045","0","19","0","2","1","1","3","1","Arc19.png"
"6.4.2","Cannonball Task","1","2021-10-01","16:54:42","begin_round","placeshield_mouse","ODDBALL","ODDBALL","BLUE","0.8599999999999999867","4","1","18.7749999999999985789","0","0","0","0","0","177.9444086166484169098","168.2818916204446111351","177.4362297885350585602","186.5601964005713000461","651","0","3","2.5","196.0601964005713000461","177.0601964005713000461","6","7.6946180315484014045","0","19","0","1","1","1","3","1","Arc19.png"
"6.4.2","Cannonball Task","1","2021-10-01","16:54:42","begin_round","revealshield","ODDBALL","ODDBALL","BLUE","0.8599999999999999867","4","1","18.7749999999999985789","0","0","0","0","0","177.9444086166484169098","168.2818916204446111351","177.4362297885350585602","186.5601964005713000461","651","0","3","2.5","207.4362297885350585602","147.4362297885350585602","6","9.1239666120362414858","0","60","0","1","1","1","1","1","Arc60.png"
"6.4.2","Cannonball Task","1","2021-10-01","16:54:42","begin_round","cannon_outcome","ODDBALL","ODDBALL","BLUE","0.8599999999999999867","4","1","18.7749999999999985789","0","0","0","0","1","177.9444086166484169098","168.2818916204446111351","177.4362297885350585602","186.5601964005713000461","651","1","3","2.5","207.4362297885350585602","147.4362297885350585602","5","9.1239666120362414858","0","60","0","1","1","1","1","1","Arc60.png"
"6.4.2","Cannonball Task","1","2021-10-01","16:54:42","begin_round","mainloop","ODDBALL","ODDBALL","BLUE","0.8599999999999999867","4","1","18.7749999999999985789","0","0","0","0","1","176.900134321135482196","193.7296542003435604329","177.4362297885350585602","186.5601964005713000461","651","1","3","2.5","207.4362297885350585602","147.4362297885350585602","5","9.1239666120362414858","0","60","0","0","1","1","1","1","Arc60.png"
"6.4.2","Cannonball Task","1","2021-10-01","16:54:42","begin_round","placeshield_mouse","ODDBALL","ODDBALL","BLUE","0.8599999999999999867","4","1","18.7749999999999985789","0","0","0","0","1","176.900134321135482196","193.7296542003435604329","177.4362297885350585602","177.4362297885350585602","384","1","3","2.5","207.4362297885350585602","147.4362297885350585602","5","9.1239666120362414858","0","60","0","1","1","1","1","1","Arc60.png"
"6.4.2","Cannonball Task","1","2021-10-01","16:54:42","begin_round","revealshield","ODDBALL","ODDBALL","BLUE","0.8599999999999999867","4","1","18.7749999999999985789","0","0","0","0","1","176.900134321135482196","193.7296542003435604329","177.4362297885350585602","177.4362297885350585602","384","1","3","2.5","195.4362297885350585602","159.4362297885350585602","5","0","0","36","0","1","1","1","1","1","Arc36.png"
"6.4.2","Cannonball Task","1","2021-10-01","16:54:42","begin_round","cannon_outcome","ODDBALL","ODDBALL","BLUE","0.8599999999999999867","4","1","18.7749999999999985789","0","0","0","0","1","176.900134321135482196","193.7296542003435604329","177.4362297885350585602","177.4362297885350585602","384","2","3","2.5","195.4362297885350585602","159.4362297885350585602","5","0","0","36","0","1","1","1","1","1","Arc36.png"
"6.4.2","Cannonball Task","1","2021-10-01","16:54:42","begin_round","EndPracticePhase","ODDBALL","ODDBALL","BLUE","0.8599999999999999867","5","1","18.7749999999999985789","0","0","0","0","1","176.900134321135482196","193.7296542003435604329","177.4362297885350585602","177.4362297885350585602","384","2","3","3.5","195.4362297885350585602","159.4362297885350585602","5","0","0","36","1","1","1","1","1","1","Arc36.png"
"6.4.2","Cannonball Task","1","2021-10-01","16:54:42","begin_round","PracticeBlock_CannonNotVisible","ODDBALL","ODDBALL","BLUE","0.8599999999999999867","5","2","18.7749999999999985789","0","1","0","0","1","349.9344061664153286983","193.7296542003435604329","177.4362297885350585602","177.4362297885350585602","384","2","3","3.5","195.4362297885350585602","159.4362297885350585602","5","0","0","36","1","1","1","1","1","1","Arc36.png"
"6.4.2","Cannonball Task","1","2021-10-01","16:54:42","begin_round","mainloop","ODDBALL","ODDBALL","BLUE","0.8599999999999999867","5","2","18.7749999999999985789","0","1","0","0","1","343.0795899000887629882","346.7403179087714875095","177.4362297885350585602","177.4362297885350585602","384","2","3","3.5","195.4362297885350585602","159.4362297885350585602","5","0","0","36","1","1","1","1","1","1","Arc36.png"
"6.4.2","Cannonball Task","1","2021-10-01","16:54:42","begin_round","placeshield_mouse","ODDBALL","ODDBALL","BLUE","0.8599999999999999867","5","2","18.7749999999999985789","0","1","0","0","1","343.0795899000887629882","346.7403179087714875095","174.472459848343817157","177.4362297885350585602","1020","2","3","3.5","195.4362297885350585602","159.4362297885350585602","5","0","0","36","1","1","1","1","1","1","Arc36.png"
"6.4.2","Cannonball Task","1","2021-10-01","16:54:42","begin_round","revealshield","ODDBALL","ODDBALL","BLUE","0.8599999999999999867","5","2","18.7749999999999985789","0","1","0","0","1","343.0795899000887629882","346.7403179087714875095","174.472459848343817157","177.4362297885350585602","1020","2","3","3.5","196.972459848343817157","151.972459848343817157","5","2.9637699401912414032","0","45","1","0","1","0","2","0","Arc45.png"
"6.4.2","Cannonball Task","1","2021-10-01","16:54:42","begin_round","cannon_outcome","ODDBALL","ODDBALL","BLUE","0.8599999999999999867","5","2","18.7749999999999985789","0","1","0","0","0","343.0795899000887629882","346.7403179087714875095","174.472459848343817157","177.4362297885350585602","1020","2","4","3.5","196.972459848343817157","151.972459848343817157","6","2.9637699401912414032","0","45","1","0","1","0","2","0","Arc45.png"
"6.4.2","Cannonball Task","1","2021-10-01","16:54:42","begin_round","Reminder","ODDBALL","ODDBALL","BLUE","0.8599999999999999867","5","2","18.7749999999999985789","0","1","0","0","0","343.0795899000887629882","346.7403179087714875095","174.472459848343817157","177.4362297885350585602","1020","2","4","3.5","196.972459848343817157","151.972459848343817157","6","2.9637699401912414032","0","45","1","0","1","0","2","0","Arc45.png"
"6.4.2","Cannonball Task","1","2021-10-01","16:54:42","begin_round","mainloop","ODDBALL","ODDBALL","BLUE","0.8599999999999999867","5","2","18.7749999999999985789","0","1","1","0","0","343.0795899000887629882","302.4238881055321144231","174.472459848343817157","177.4362297885350585602","1020","2","4","3.5","196.972459848343817157","151.972459848343817157","6","2.9637699401912414032","0","45","1","1","1","0","2","0","Arc45.png"
"6.4.2","Cannonball Task","1","2021-10-01","16:54:42","begin_round","placeshield_mouse","ODDBALL","ODDBALL","BLUE","0.8599999999999999867","5","2","18.7749999999999985789","0","1","1","0","0","343.0795899000887629882","302.4238881055321144231","346.6200368729386696032","174.472459848343817157","592","2","4","3.5","196.972459848343817157","151.972459848343817157","6","2.9637699401912414032","0","45","1","1","1","0","2","0","Arc45.png"
"6.4.2","Cannonball Task","1","2021-10-01","16:54:42","begin_round","revealshield","ODDBALL","ODDBALL","BLUE","0.8599999999999999867","5","2","18.7749999999999985789","0","1","1","0","0","343.0795899000887629882","302.4238881055321144231","346.6200368729386696032","174.472459848343817157","592","2","4","3.5","362.1200368729386696032","331.1200368729386696032","6","172.1475770245948524462","0","31","1","1","1","1","1","1","Arc31.png"
"6.4.2","Cannonball Task","1","2021-10-01","16:54:42","begin_round","cannon_outcome","ODDBALL","ODDBALL","BLUE","0.8599999999999999867","5","2","18.7749999999999985789","0","1","1","0","0","343.0795899000887629882","302.4238881055321144231","346.6200368729386696032","174.472459848343817157","592","2","5","3.5","2.1200368729386696032","331.1200368729386696032","6","172.1475770245948524462","0","31","1","1","1","1","1","1","Arc31.png"
"6.4.2","Cannonball Task","1","2021-10-01","16:54:42","begin_round","Reminder","ODDBALL","ODDBALL","BLUE","0.8599999999999999867","5","2","18.7749999999999985789","0","1","1","0","0","343.0795899000887629882","302.4238881055321144231","346.6200368729386696032","174.472459848343817157","592","2","5","3.5","2.1200368729386696032","331.1200368729386696032","6","172.1475770245948524462","0","31","1","1","1","1","1","1","Arc31.png"
"6.4.2","Cannonball Task","1","2021-10-01","16:54:42","begin_round","mainloop","ODDBALL","ODDBALL","BLUE","0.8599999999999999867","5","2","18.7749999999999985789","0","1","1","0","0","343.0795899000887629882","128.2615624294294036645","346.6200368729386696032","174.472459848343817157","592","2","5","3.5","2.1200368729386696032","331.1200368729386696032","6","172.1475770245948524462","0","31","1","1","1","1","1","1","Arc31.png"
"6.4.2","Cannonball Task","1","2021-10-01","16:54:42","begin_round","placeshield_mouse","ODDBALL","ODDBALL","BLUE","0.8599999999999999867","5","2","18.7749999999999985789","0","1","1","0","0","343.0795899000887629882","128.2615624294294036645","303.7682336159755323024","346.6200368729386696032","773","2","5","3.5","2.1200368729386696032","331.1200368729386696032","6","172.1475770245948524462","0","31","1","1","1","1","1","1","Arc31.png"
"6.4.2","Cannonball Task","1","2021-10-01","16:54:42","begin_round","revealshield","ODDBALL","ODDBALL","BLUE","0.8599999999999999867","5","2","18.7749999999999985789","0","1","1","0","0","343.0795899000887629882","128.2615624294294036645","303.7682336159755323024","346.6200368729386696032","773","2","5","3.5","313.7682336159755323024","293.7682336159755323024","6","42.8518032569631373008","0","20","1","1","1","1","1","1","Arc20.png"
"6.4.2","Cannonball Task","1","2021-10-01","16:54:42","begin_round","cannon_outcome","ODDBALL","ODDBALL","BLUE","0.8599999999999999867","5","2","18.7749999999999985789","0","1","1","0","0","343.0795899000887629882","128.2615624294294036645","303.7682336159755323024","346.6200368729386696032","773","2","6","3.5","313.7682336159755323024","293.7682336159755323024","6","42.8518032569631373008","0","20","1","1","1","1","1","1","Arc20.png"
"6.4.2","Cannonball Task","1","2021-10-01","16:54:42","begin_round","Reminder","ODDBALL","ODDBALL","BLUE","0.8599999999999999867","5","2","18.7749999999999985789","0","1","1","0","0","343.0795899000887629882","128.2615624294294036645","303.7682336159755323024","346.6200368729386696032","773","2","6","3.5","313.7682336159755323024","293.7682336159755323024","6","42.8518032569631373008","0","20","1","1","1","1","1","1","Arc20.png"
"6.4.2","Cannonball Task","1","2021-10-01","16:54:42","begin_round","mainloop","ODDBALL","ODDBALL","BLUE","0.8599999999999999867","5","2","18.7749999999999985789","0","1","0","0","0","346.4149849549412465421","298.2550387216705871651","303.7682336159755323024","346.6200368729386696032","773","2","6","3.5","313.7682336159755323024","293.7682336159755323024","6","42.8518032569631373008","0","20","1","3","1","1","1","1","Arc20.png"
"6.4.2","Cannonball Task","1","2021-10-01","16:54:42","begin_round","placeshield_mouse","ODDBALL","ODDBALL","BLUE","0.8599999999999999867","5","2","18.7749999999999985789","0","1","0","0","0","346.4149849549412465421","298.2550387216705871651","129.0938588862294977844","303.7682336159755323024","549","2","6","3.5","313.7682336159755323024","293.7682336159755323024","6","42.8518032569631373008","0","20","1","2","2","1","1","1","Arc20.png"
"6.4.2","Cannonball Task","1","2021-10-01","16:54:42","begin_round","revealshield","ODDBALL","ODDBALL","BLUE","0.8599999999999999867","5","2","18.7749999999999985789","0","1","0","0","0","346.4149849549412465421","298.2550387216705871651","129.0938588862294977844","303.7682336159755323024","549","2","6","3.5","146.0938588862294977844","112.0938588862294977844","6","174.674374729746034518","0","34","1","2","2","2","2","2","Arc34.png"
"6.4.2","Cannonball Task","1","2021-10-01","16:54:42","begin_round","cannon_outcome","ODDBALL","ODDBALL","BLUE","0.8599999999999999867","5","2","18.7749999999999985789","0","1","0","0","0","346.4149849549412465421","298.2550387216705871651","129.0938588862294977844","303.7682336159755323024","549","2","7","3.5","146.0938588862294977844","112.0938588862294977844","6","174.674374729746034518","0","34","1","2","2","2","2","2","Arc34.png"
"6.4.2","Cannonball Task","1","2021-10-01","16:54:42","begin_round","Reminder","ODDBALL","ODDBALL","BLUE","0.8599999999999999867","5","2","18.7749999999999985789","0","1","0","0","0","346.4149849549412465421","298.2550387216705871651","129.0938588862294977844","303.7682336159755323024","549","2","7","3.5","146.0938588862294977844","112.0938588862294977844","6","174.674374729746034518","0","34","1","2","2","2","2","2","Arc34.png"
"6.4.2","Cannonball Task","1","2021-10-01","17:03:15","InstructionBlock","Phase_starts","","0","0","0.8599999999999999867","1","1","18.7749999999999985789","0","0","0","0","0","0","0","0","0","0","0","0","0","3","-3","0","0","0","3","0","-1","-1","-1","-1","-1","Arc5.png"
"6.4.2","Cannonball Task","1","2021-10-01","17:03:15","InstructionBlock","Instructions_BeginTask","","0","0","0.8599999999999999867","1","1","18.7749999999999985789","0","0","0","0","0","0","0","0","0","0","0","0","0","3","-3","0","0","0","3","0","-1","-1","-1","-1","-1","Arc5.png"
"6.4.2","Cannonball Task","1","2021-10-01","17:03:15","InstructionBlock","Instructions_PlaceShield_delay","","0","0","0.8599999999999999867","1","1","18.7749999999999985789","0","0","0","0","0","0","0","0","0","0","0","0","0","3","-3","0","0","0","3","0","1","1","-1","1","-1","Arc5.png"
"6.4.2","Cannonball Task","1","2021-10-01","17:03:15","InstructionBlock","Instructions_PlaceShield_delay","","0","0","0.8599999999999999867","1","1","18.7749999999999985789","0","0","0","0","0","0","0","0","0","0","0","0","0","3","-3","0","0","0","3","0","1","1","-1","1","-1","Arc5.png"
"6.4.2","Cannonball Task","1","2021-10-01","17:03:15","InstructionBlock","Instructions_PlaceShield_delay","","0","0","0.8599999999999999867","1","1","18.7749999999999985789","0","0","0","0","0","0","0","0","0","0","0","0","0","3","-3","0","0","0","3","0","1","1","-1","1","-1","Arc5.png"
"6.4.2","Cannonball Task","1","2021-10-01","17:03:15","InstructionBlock","lockin","","0","0","0.8599999999999999867","1","1","18.7749999999999985789","0","0","0","0","0","0","0","0","0","0","0","0","0","3","-3","0","0","0","3","0","1","1","-1","1","-1","Arc5.png"
"6.4.2","Cannonball Task","1","2021-10-01","17:03:15","InstructionBlock","Instructions_PlaceShield","","0","0","0.8599999999999999867","1","1","18.7749999999999985789","0","0","0","0","0","0","0","358.8248667627608483599","0","0","0","0","0","3","-3","0","0","0","3","0","2","2","-1","1","-1","Arc5.png"
"6.4.2","Cannonball Task","1","2021-10-01","17:03:15","InstructionBlock","Instructions_CannonOutcome","","0","0","0.8599999999999999867","1","1","18.7749999999999985789","0","0","0","0","0","0","0","358.8248667627608483599","0","0","0","0","0","3","-3","0","0","0","3","0","0","2","0","0","-1","Arc5.png"
"6.4.2","Cannonball Task","1","2021-10-01","17:03:15","InstructionBlock","cannon_outcome","","0","0","0.8599999999999999867","1","1","18.7749999999999985789","0","0","0","0","1","0","0","358.8248667627608483599","0","0","0","0","0","3","-3","3","0","0","3","0","0","2","0","0","-1","Arc5.png"
"6.4.2","Cannonball Task","1","2021-10-01","17:03:15","InstructionBlock","Instructions_RevealShield","","0","0","0.8599999999999999867","2","1","18.7749999999999985789","0","0","0","0","1","0","0","358.8248667627608483599","0","0","0","0","0","3","-3","3","0","0","3","0","0","2","0","0","-1","Arc5.png"
"6.4.2","Cannonball Task","1","2021-10-01","17:03:15","InstructionBlock","Instructions_RevealShield","","0","0","0.8599999999999999867","2","1","18.7749999999999985789","0","0","0","0","1","0","0","358.8248667627608483599","0","0","0","0","0","3","-3","3","0","0","3","0","0","2","0","0","-1","Arc5.png"
"6.4.2","Cannonball Task","1","2021-10-01","17:03:15","InstructionBlock","Instructions_RevealShield","","0","0","0.8599999999999999867","2","1","18.7749999999999985789","0","0","0","0","1","0","0","358.8248667627608483599","0","0","0","0","0","3","-3","3","0","0","3","0","0","2","0","0","-1","Arc5.png"
"6.4.2","Cannonball Task","1","2021-10-01","17:03:15","InstructionBlock","mainloop","","0","0","0.8599999999999999867","2","1","18.7749999999999985789","0","0","0","0","1","0","0","358.8248667627608483599","0","0","0","0","0","3","-3","3","0","0","3","0","1","2","0","0","-1","Arc5.png"
"6.4.2","Cannonball Task","1","2021-10-01","17:03:15","InstructionBlock","placeshield_mouse","","0","0","0.8599999999999999867","2","1","18.7749999999999985789","0","0","0","0","1","0","0","1.5985370926759681076","358.8248667627608483599","1126","0","0","0","3","-3","3","0","0","3","0","1","1","0","0","-1","Arc5.png"
"6.4.2","Cannonball Task","1","2021-10-01","17:03:15","InstructionBlock","revealshield","","0","0","0.8599999999999999867","2","1","18.7749999999999985789","0","0","0","0","1","0","0","1.5985370926759681076","358.8248667627608483599","1126","0","0","0","14.5985370926759685517","-11.4014629073240314483","3","2.7736703299150917701","0","26","0","3","1","3","0","3","Arc26.png"
"6.4.2","Cannonball Task","1","2021-10-01","17:03:15","InstructionBlock","cannon_outcome","","0","0","0.8599999999999999867","2","1","18.7749999999999985789","0","0","0","0","1","0","0","1.5985370926759681076","358.8248667627608483599","1126","1","0","0","14.5985370926759685517","348.5985370926759969734","5","2.7736703299150917701","0","26","0","3","1","3","0","3","Arc26.png"
"6.4.2","Cannonball Task","1","2021-10-01","17:03:15","InstructionBlock","mainloop","","0","0","0.8599999999999999867","2","1","18.7749999999999985789","0","0","0","0","1","0","0","1.5985370926759681076","358.8248667627608483599","1126","1","0","0","14.5985370926759685517","348.5985370926759969734","5","2.7736703299150917701","0","26","0","1","1","3","0","3","Arc26.png"
"6.4.2","Cannonball Task","1","2021-10-01","17:03:15","InstructionBlock","placeshield_mouse","","0","0","0.8599999999999999867","2","1","18.7749999999999985789","0","0","0","0","1","0","0","1.9461951170307558723","1.5985370926759681076","575","1","0","0","14.5985370926759685517","348.5985370926759969734","5","2.7736703299150917701","0","26","0","1","1","3","0","3","Arc26.png"
"6.4.2","Cannonball Task","1","2021-10-01","17:03:15","InstructionBlock","revealshield","","0","0","0.8599999999999999867","2","1","18.7749999999999985789","0","0","0","0","1","0","0","1.9461951170307558723","1.5985370926759681076","575","1","0","0","20.446195117030754318","-16.553804882969245682","5","0.3476580243547877647","0","37","0","1","1","1","1","1","Arc37.png"
"6.4.2","Cannonball Task","1","2021-10-01","17:03:15","InstructionBlock","cannon_outcome","","0","0","0.8599999999999999867","2","1","18.7749999999999985789","0","0","0","0","1","0","0","1.9461951170307558723","1.5985370926759681076","575","2","0","0","20.446195117030754318","343.446195117030754318","5","0.3476580243547877647","0","37","0","1","1","1","1","1","Arc37.png"
"6.4.2","Cannonball Task","1","2021-10-01","17:03:15","InstructionBlock","PracticeBlock_CannonMoves","","0","0","0.8599999999999999867","3","1","18.7749999999999985789","0","0","0","0","1","0","0","1.9461951170307558723","1.5985370926759681076","575","2","0","0","20.446195117030754318","343.446195117030754318","5","0.3476580243547877647","0","37","0","1","1","1","1","1","Arc37.png"
"6.4.2","Cannonball Task","1","2021-10-01","17:03:15","InstructionBlock","PracticeBlock_CannonNotAccurate","","0","0","0.8599999999999999867","3","1","18.7749999999999985789","0","0","0","0","1","0","0","1.9461951170307558723","1.5985370926759681076","575","2","0","0","20.446195117030754318","343.446195117030754318","5","0.3476580243547877647","0","37","0","1","1","1","1","1","Arc37.png"
"6.4.2","Cannonball Task","1","2021-10-01","17:03:15","InstructionBlock","ClicktoContinue","","0","0","0.8599999999999999867","3","1","18.7749999999999985789","0","0","0","0","1","0","0","1.9461951170307558723","1.5985370926759681076","575","2","0","0","20.446195117030754318","343.446195117030754318","5","0.3476580243547877647","0","37","0","1","1","1","1","1","Arc37.png"
"6.4.2","Cannonball Task","1","2021-10-01","17:03:15","InstructionBlock","mainloop","","0","0","0.8599999999999999867","3","1","18.7749999999999985789","0","0","0","0","1","278.2014103509023357219","278.2014103509023357219","1.9461951170307558723","1.5985370926759681076","575","2","0","0","20.446195117030754318","343.446195117030754318","5","0.3476580243547877647","0","37","0","1","1","1","1","1","Arc37.png"
"6.4.2","Cannonball Task","1","2021-10-01","17:03:15","InstructionBlock","placeshield_mouse","","0","0","0.8599999999999999867","3","1","18.7749999999999985789","0","0","0","0","1","278.2014103509023357219","278.2014103509023357219","277.7517791542967415808","1.9461951170307558723","926","2","0","0","20.446195117030754318","343.446195117030754318","5","0.3476580243547877647","0","37","0","2","2","1","1","1","Arc37.png"
"6.4.2","Cannonball Task","1","2021-10-01","17:03:15","InstructionBlock","revealshield","","0","0","0.8599999999999999867","3","1","18.7749999999999985789","0","0","0","0","1","278.2014103509023357219","278.2014103509023357219","277.7517791542967415808","1.9461951170307558723","926","2","0","0","301.7517791542967415808","253.7517791542967415808","5","84.1944159627340127372","0","48","0","1","2","1","2","1","Arc48.png"
"6.4.2","Cannonball Task","1","2021-10-01","17:03:15","InstructionBlock","cannon_outcome","","0","0","0.8599999999999999867","3","1","18.7749999999999985789","0","0","0","0","1","278.2014103509023357219","278.2014103509023357219","277.7517791542967415808","1.9461951170307558723","926","3","0","0","301.7517791542967415808","253.7517791542967415808","5","84.1944159627340127372","0","48","0","1","2","1","2","1","Arc48.png"
"6.4.2","Cannonball Task","1","2021-10-01","17:03:15","InstructionBlock","mainloop","","0","0","0.8599999999999999867","3","1","18.7749999999999985789","0","0","0","0","1","306.67578132512880984","306.67578132512880984","277.7517791542967415808","1.9461951170307558723","926","3","0","0","301.7517791542967415808","253.7517791542967415808","5","84.1944159627340127372","0","48","0","0","2","1","2","1","Arc48.png"
"6.4.2","Cannonball Task","1","2021-10-01","17:03:15","InstructionBlock","placeshield_mouse","","0","0","0.8599999999999999867","3","1","18.7749999999999985789","0","0","0","0","1","306.67578132512880984","306.67578132512880984","308.9192590671830203064","277.7517791542967415808","656","3","0","0","301.7517791542967415808","253.7517791542967415808","5","84.1944159627340127372","0","48","0","0","0","1","2","1","Arc48.png"
"6.4.2","Cannonball Task","1","2021-10-01","17:03:15","InstructionBlock","revealshield","","0","0","0.8599999999999999867","3","1","18.7749999999999985789","0","0","0","0","1","306.67578132512880984","306.67578132512880984","308.9192590671830203064","277.7517791542967415808","656","3","0","0","328.4192590671830203064","289.4192590671830203064","5","31.1674799128862787256","0","39","0","1","0","1","1","1","Arc39.png"
"6.4.2","Cannonball Task","1","2021-10-01","17:03:15","InstructionBlock","cannon_outcome","","0","0","0.8599999999999999867","3","1","18.7749999999999985789","0","0","0","0","1","306.67578132512880984","306.67578132512880984","308.9192590671830203064","277.7517791542967415808","656","4","0","0","328.4192590671830203064","289.4192590671830203064","5","31.1674799128862787256","0","39","0","1","0","1","1","1","Arc39.png"
"6.4.2","Cannonball Task","1","2021-10-01","17:03:15","InstructionBlock","mainloop","","0","0","0.8599999999999999867","3","1","18.7749999999999985789","0","0","0","0","1","182.6772892993589039179","182.6772892993589039179","308.9192590671830203064","277.7517791542967415808","656","4","0","0","328.4192590671830203064","289.4192590671830203064","5","31.1674799128862787256","0","39","0","0","0","1","1","1","Arc39.png"
"6.4.2","Cannonball Task","1","2021-10-01","17:03:15","InstructionBlock","placeshield_mouse","","0","0","0.8599999999999999867","3","1","18.7749999999999985789","0","0","0","0","1","182.6772892993589039179","182.6772892993589039179","180.2754583561352319521","308.9192590671830203064","976","4","0","0","328.4192590671830203064","289.4192590671830203064","5","31.1674799128862787256","0","39","0","1","1","1","1","1","Arc39.png"
"6.4.2","Cannonball Task","1","2021-10-01","17:03:15","InstructionBlock","revealshield","","0","0","0.8599999999999999867","3","1","18.7749999999999985789","0","0","0","0","1","182.6772892993589039179","182.6772892993589039179","180.2754583561352319521","308.9192590671830203064","976","4","0","0","192.2754583561352319521","168.2754583561352319521","5","128.6438007110477883543","0","24","0","1","1","1","1","1","Arc24.png"
"6.4.2","Cannonball Task","1","2021-10-01","17:03:15","InstructionBlock","cannon_outcome","","0","0","0.8599999999999999867","3","1","18.7749999999999985789","0","0","0","0","1","182.6772892993589039179","182.6772892993589039179","180.2754583561352319521","308.9192590671830203064","976","5","0","0","192.2754583561352319521","168.2754583561352319521","5","128.6438007110477883543","0","24","0","1","1","1","1","1","Arc24.png"
"6.4.2","Cannonball Task","1","2021-10-01","17:03:15","InstructionBlock","EndPractice","","CHANGEPOINT","0","0.8599999999999999867","4","1","18.7749999999999985789","0","0","0","0","1","182.6772892993589039179","182.6772892993589039179","180.2754583561352319521","308.9192590671830203064","976","0","0","2.5","192.2754583561352319521","168.2754583561352319521","5","128.6438007110477883543","0","24","2.5","1","1","1","1","1","Arc24.png"
"6.4.2","Cannonball Task","1","2021-10-01","17:03:15","InstructionBlock","EndPractice","","CHANGEPOINT","0","0.8599999999999999867","4","1","18.7749999999999985789","0","0","0","0","1","182.6772892993589039179","182.6772892993589039179","180.2754583561352319521","308.9192590671830203064","976","0","0","2.5","192.2754583561352319521","168.2754583561352319521","5","128.6438007110477883543","0","24","0","1","1","1","1","1","Arc24.png"
"6.4.2","Cannonball Task","1","2021-10-01","17:03:15","InstructionBlock","EndPractice","","CHANGEPOINT","0","0.8599999999999999867","4","1","18.7749999999999985789","0","0","0","0","1","182.6772892993589039179","182.6772892993589039179","180.2754583561352319521","308.9192590671830203064","976","0","0","2.5","192.2754583561352319521","168.2754583561352319521","5","128.6438007110477883543","0","24","0","1","1","1","1","1","Arc24.png"
"6.4.2","Cannonball Task","1","2021-10-01","17:03:15","begin_round","Phase_starts","CHANGEPOINT","CHANGEPOINT","BLUE","0.8599999999999999867","4","1","18.7749999999999985789","0","0","0","0","1","182.6772892993589039179","182.6772892993589039179","180.2754583561352319521","308.9192590671830203064","976","0","0","2.5","192.2754583561352319521","168.2754583561352319521","5","128.6438007110477883543","0","24","0","1","1","1","1","1","Arc24.png"
"6.4.2","Cannonball Task","1","2021-10-01","17:03:15","begin_round","mainloop","CHANGEPOINT","CHANGEPOINT","BLUE","0.8599999999999999867","4","1","18.7749999999999985789","0","0","0","0","1","37.1784935326265397748","20.6789745322596623112","180.2754583561352319521","308.9192590671830203064","976","0","0","2.5","192.2754583561352319521","168.2754583561352319521","5","128.6438007110477883543","0","24","0","1","1","1","1","1","Arc24.png"
"6.4.2","Cannonball Task","1","2021-10-01","17:03:15","begin_round","placeshield_mouse","CHANGEPOINT","CHANGEPOINT","BLUE","0.8599999999999999867","4","1","18.7749999999999985789","0","0","0","0","1","37.1784935326265397748","20.6789745322596623112","38.4801982483430222715","180.2754583561352319521","989","0","0","2.5","192.2754583561352319521","168.2754583561352319521","5","128.6438007110477883543","0","24","0","1","1","1","1","1","Arc24.png"
"6.4.2","Cannonball Task","1","2021-10-01","17:03:15","begin_round","revealshield","CHANGEPOINT","CHANGEPOINT","BLUE","0.8599999999999999867","4","1","18.7749999999999985789","0","0","0","0","1","37.1784935326265397748","20.6789745322596623112","38.4801982483430222715","180.2754583561352319521","989","0","0","2.5","42.9801982483430222715","33.9801982483430222715","5","141.795260107792216786","0","9","0","1","1","1","3","1","Arc9.png"
"6.4.2","Cannonball Task","1","2021-10-01","17:03:15","begin_round","cannon_outcome","CHANGEPOINT","CHANGEPOINT","BLUE","0.8599999999999999867","4","1","18.7749999999999985789","0","0","0","0","0","37.1784935326265397748","20.6789745322596623112","38.4801982483430222715","180.2754583561352319521","989","0","1","2.5","42.9801982483430222715","33.9801982483430222715","6","141.795260107792216786","0","9","0","1","1","1","3","1","Arc9.png"
"6.4.2","Cannonball Task","1","2021-10-01","17:03:15","begin_round","mainloop","CHANGEPOINT","CHANGEPOINT","BLUE","0.8599999999999999867","4","1","18.7749999999999985789","0","0","0","0","0","37.1784935326265397748","34.61946796690956063","38.4801982483430222715","180.2754583561352319521","989","0","1","2.5","42.9801982483430222715","33.9801982483430222715","6","141.795260107792216786","0","9","0","1","1","1","3","1","Arc9.png"
"6.4.2","Cannonball Task","1","2021-10-01","17:03:15","begin_round","placeshield_mouse","CHANGEPOINT","CHANGEPOINT","BLUE","0.8599999999999999867","4","1","18.7749999999999985789","0","0","0","0","0","37.1784935326265397748","34.61946796690956063","29.8542938555698178504","38.4801982483430222715","291","0","1","2.5","42.9801982483430222715","33.9801982483430222715","6","141.795260107792216786","0","9","0","2","2","1","3","1","Arc9.png"
"6.4.2","Cannonball Task","1","2021-10-01","17:03:15","begin_round","revealshield","CHANGEPOINT","CHANGEPOINT","BLUE","0.8599999999999999867","4","1","18.7749999999999985789","0","0","0","0","0","37.1784935326265397748","34.61946796690956063","29.8542938555698178504","38.4801982483430222715","291","0","1","2.5","57.8542938555698214032","1.8542938555698178504","6","8.625904392773204421","0","56","0","2","2","2","1","2","Arc56.png"
"6.4.2","Cannonball Task","1","2021-10-01","17:03:15","begin_round","cannon_outcome","CHANGEPOINT","CHANGEPOINT","BLUE","0.8599999999999999867","4","1","18.7749999999999985789","0","0","0","0","1","37.1784935326265397748","34.61946796690956063","29.8542938555698178504","38.4801982483430222715","291","1","1","2.5","57.8542938555698214032","1.8542938555698178504","5","8.625904392773204421","0","56","0","2","2","2","1","2","Arc56.png"
"6.4.2","Cannonball Task","1","2021-10-01","17:03:15","begin_round","mainloop","CHANGEPOINT","CHANGEPOINT","BLUE","0.8599999999999999867","4","1","18.7749999999999985789","0","0","0","0","1","37.1784935326265397748","52.8457344154705168648","29.8542938555698178504","38.4801982483430222715","291","1","1","2.5","57.8542938555698214032","1.8542938555698178504","5","8.625904392773204421","0","56","0","1","2","2","1","2","Arc56.png"
"6.4.2","Cannonball Task","1","2021-10-01","17:03:15","begin_round","placeshield_mouse","CHANGEPOINT","CHANGEPOINT","BLUE","0.8599999999999999867","4","1","18.7749999999999985789","0","0","0","0","1","37.1784935326265397748","52.8457344154705168648","31.9741593531291776742","29.8542938555698178504","452","1","1","2.5","57.8542938555698214032","1.8542938555698178504","5","8.625904392773204421","0","56","0","1","1","2","1","2","Arc56.png"
"6.4.2","Cannonball Task","1","2021-10-01","17:03:15","begin_round","revealshield","CHANGEPOINT","CHANGEPOINT","BLUE","0.8599999999999999867","4","1","18.7749999999999985789","0","0","0","0","1","37.1784935326265397748","52.8457344154705168648","31.9741593531291776742","29.8542938555698178504","452","1","1","2.5","","","5","2.1198654975593598238","0","","0","1","1","1","2","1","Arc5.png"
"6.4.2","Cannonball Task","1","2021-10-01","17:03:15","begin_round","cannon_outcome","CHANGEPOINT","CHANGEPOINT","BLUE","0.8599999999999999867","4","1","18.7749999999999985789","0","0","0","0","0","37.1784935326265397748","52.8457344154705168648","31.9741593531291776742","29.8542938555698178504","452","1","2","2.5","","","6","2.1198654975593598238","0","","0","1","1","1","2","1","Arc5.png"
"6.4.2","Cannonball Task","1","2021-10-01","17:03:15","begin_round","mainloop","CHANGEPOINT","CHANGEPOINT","BLUE","0.8599999999999999867","4","1","18.7749999999999985789","0","0","1","0","0","179.7739350841785608281","179.2713314730665388197","31.9741593531291776742","29.8542938555698178504","452","1","2","2.5","","","6","2.1198654975593598238","0","","0","1","1","1","2","1","Arc5.png"
"6.4.2","Cannonball Task","1","2021-10-01","17:03:15","begin_round","placeshield_mouse","CHANGEPOINT","CHANGEPOINT","BLUE","0.8599999999999999867","4","1","18.7749999999999985789","0","0","1","0","0","179.7739350841785608281","179.2713314730665388197","38.534067901060460315","31.9741593531291776742","274","1","2","2.5","","","6","2.1198654975593598238","0","","0","0","0","1","2","1","Arc5.png"
"6.4.2","Cannonball Task","1","2021-10-01","17:03:15","begin_round","revealshield","CHANGEPOINT","CHANGEPOINT","BLUE","0.8599999999999999867","4","1","18.7749999999999985789","0","0","1","0","0","179.7739350841785608281","179.2713314730665388197","38.534067901060460315","31.9741593531291776742","274","1","2","2.5","57.534067901060460315","19.534067901060460315","6","6.5599085479312826408","0","38","0","1","0","1","2","1","Arc38.png"
"6.4.2","Cannonball Task","1","2021-10-01","17:03:15","begin_round","cannon_outcome","CHANGEPOINT","CHANGEPOINT","BLUE","0.8599999999999999867","4","1","18.7749999999999985789","0","0","1","0","0","179.7739350841785608281","179.2713314730665388197","38.534067901060460315","31.9741593531291776742","274","1","3","2.5","57.534067901060460315","19.534067901060460315","6","6.5599085479312826408","0","38","0","1","0","1","2","1","Arc38.png"
"6.4.2","Cannonball Task","1","2021-10-01","17:03:15","begin_round","Reminder","CHANGEPOINT","CHANGEPOINT","BLUE","0.8599999999999999867","4","1","18.7749999999999985789","0","0","1","0","0","179.7739350841785608281","179.2713314730665388197","38.534067901060460315","31.9741593531291776742","274","1","3","2.5","57.534067901060460315","19.534067901060460315","6","6.5599085479312826408","0","38","0","1","0","1","2","1","Arc38.png"
"6.4.2","Cannonball Task","1","2021-10-01","17:03:15","begin_round","mainloop","CHANGEPOINT","CHANGEPOINT","BLUE","0.8599999999999999867","4","1","18.7749999999999985789","0","0","0","0","0","179.7739350841785608281","158.6993410404204780662","38.534067901060460315","31.9741593531291776742","274","1","3","2.5","57.534067901060460315","19.534067901060460315","6","6.5599085479312826408","0","38","0","3","0","1","2","1","Arc38.png"
"6.4.2","Cannonball Task","1","2021-10-01","17:03:15","begin_round","placeshield_mouse","CHANGEPOINT","CHANGEPOINT","BLUE","0.8599999999999999867","4","1","18.7749999999999985789","0","0","0","0","0","179.7739350841785608281","158.6993410404204780662","238.2633287434063049659","38.534067901060460315","923","1","3","2.5","57.534067901060460315","19.534067901060460315","6","6.5599085479312826408","0","38","0","2","2","1","2","1","Arc38.png"
"6.4.2","Cannonball Task","1","2021-10-01","17:03:15","begin_round","revealshield","CHANGEPOINT","CHANGEPOINT","BLUE","0.8599999999999999867","4","1","18.7749999999999985789","0","0","0","0","0","179.7739350841785608281","158.6993410404204780662","238.2633287434063049659","38.534067901060460315","923","1","3","2.5","244.7633287434063049659","231.7633287434063049659","6","160.2707391576541624545","0","13","0","1","2","1","1","1","Arc13.png"
"6.4.2","Cannonball Task","1","2021-10-01","17:03:15","begin_round","cannon_outcome","CHANGEPOINT","CHANGEPOINT","BLUE","0.8599999999999999867","4","1","18.7749999999999985789","0","0","0","0","0","179.7739350841785608281","158.6993410404204780662","238.2633287434063049659","38.534067901060460315","923","1","0","2.5","244.7633287434063049659","231.7633287434063049659","6","160.2707391576541624545","0","13","0","1","2","1","1","1","Arc13.png"
"6.4.2","Cannonball Task","1","2021-10-01","17:03:15","begin_round","EndPracticePhase","CHANGEPOINT","CHANGEPOINT","BLUE","0.8599999999999999867","5","1","18.7749999999999985789","0","0","0","0","0","179.7739350841785608281","158.6993410404204780662","238.2633287434063049659","38.534067901060460315","923","1","0","3","244.7633287434063049659","231.7633287434063049659","6","160.2707391576541624545","0","13","0.5","1","2","1","1","1","Arc13.png"
"6.4.2","Cannonball Task","1","2021-10-01","17:03:15","begin_round","youwillnotsee","CHANGEPOINT","CHANGEPOINT","BLUE","0.8599999999999999867","5","1","18.7749999999999985789","0","0","0","0","0","179.7739350841785608281","158.6993410404204780662","238.2633287434063049659","38.534067901060460315","923","1","0","3","244.7633287434063049659","231.7633287434063049659","6","160.2707391576541624545","0","13","0.5","1","2","1","1","1","Arc13.png"
"build","experimentName","subject","date","time","blockcode","trialcode","list.Condition.currentvalue","cond","condcolor","percentTrialsStay","practiceblock","cannon","driftConc","blocknum","trialnum","StaySwitch","TAC","hitmiss","angmu","outcome","placementAngle","prev_placementAngle","trial.placeshield_mouse.latency","cannonballs_caught","cannonballs_missed","totalearnings","angleup","angledown","outcomeindex","UP","distmean","shield_size","blockearnings","picture.wall.stimulusonset.1","shape.responsearea.stimulusonset.1","picture.cannonball.stimulusonset.1","picture.shield_center.stimulusonset.1","picture.shield.stimulusonset.1","picture.shield.currentitem"
"6.4.2","Cannonball Task","1","2021-10-01","17:13:28","InstructionBlock","Phase_starts","","0","0","0.8599999999999999867","1","1","18.7749999999999985789","0","0","0","0","0","0","0","0","0","0","0","0","0","3","-3","0","0","0","3","0","-1","-1","-1","-1","-1","Arc5.png"
"6.4.2","Cannonball Task","1","2021-10-01","17:13:28","InstructionBlock","Instructions_BeginTask","","0","0","0.8599999999999999867","1","1","18.7749999999999985789","0","0","0","0","0","0","0","0","0","0","0","0","0","3","-3","0","0","0","3","0","-1","-1","-1","-1","-1","Arc5.png"
"6.4.2","Cannonball Task","1","2021-10-01","17:13:28","InstructionBlock","Instructions_PlaceShield_delay","","0","0","0.8599999999999999867","1","1","18.7749999999999985789","0","0","0","0","0","0","0","0","0","0","0","0","0","3","-3","0","0","0","3","0","2","2","-1","2","-1","Arc5.png"
"6.4.2","Cannonball Task","1","2021-10-01","17:13:28","InstructionBlock","Instructions_PlaceShield_delay","","0","0","0.8599999999999999867","1","1","18.7749999999999985789","0","0","0","0","0","0","0","0","0","0","0","0","0","3","-3","0","0","0","3","0","1","1","-1","1","-1","Arc5.png"
"6.4.2","Cannonball Task","1","2021-10-01","17:13:28","InstructionBlock","Instructions_PlaceShield_delay","","0","0","0.8599999999999999867","1","1","18.7749999999999985789","0","0","0","0","0","0","0","0","0","0","0","0","0","3","-3","0","0","0","3","0","2","2","-1","2","-1","Arc5.png"
"6.4.2","Cannonball Task","1","2021-10-01","17:13:28","InstructionBlock","lockin","","0","0","0.8599999999999999867","1","1","18.7749999999999985789","0","0","0","0","0","0","0","0","0","0","0","0","0","3","-3","0","0","0","3","0","2","2","-1","2","-1","Arc5.png"
"6.4.2","Cannonball Task","1","2021-10-01","17:13:28","InstructionBlock","Instructions_PlaceShield","","0","0","0.8599999999999999867","1","1","18.7749999999999985789","0","0","0","0","0","0","0","360","0","0","0","0","0","3","-3","0","0","0","3","0","1","1","-1","2","-1","Arc5.png"
"6.4.2","Cannonball Task","1","2021-10-01","17:13:28","InstructionBlock","Instructions_CannonOutcome","","0","0","0.8599999999999999867","1","1","18.7749999999999985789","0","0","0","0","0","0","0","360","0","0","0","0","0","3","-3","0","0","0","3","0","0","1","0","0","-1","Arc5.png"
"6.4.2","Cannonball Task","1","2021-10-01","17:13:28","InstructionBlock","cannon_outcome","","0","0","0.8599999999999999867","1","1","18.7749999999999985789","0","0","0","0","1","0","0","360","0","0","0","0","0","3","-3","3","0","0","3","0","0","1","0","0","-1","Arc5.png"
"6.4.2","Cannonball Task","1","2021-10-01","17:13:28","InstructionBlock","Instructions_RevealShield","","0","0","0.8599999999999999867","2","1","18.7749999999999985789","0","0","0","0","1","0","0","360","0","0","0","0","0","3","-3","3","0","0","3","0","0","1","0","0","-1","Arc5.png"
"6.4.2","Cannonball Task","1","2021-10-01","17:13:28","InstructionBlock","Instructions_RevealShield","","0","0","0.8599999999999999867","2","1","18.7749999999999985789","0","0","0","0","1","0","0","360","0","0","0","0","0","3","-3","3","0","0","3","0","0","1","0","0","-1","Arc5.png"
"6.4.2","Cannonball Task","1","2021-10-01","17:13:28","InstructionBlock","Instructions_RevealShield","","0","0","0.8599999999999999867","2","1","18.7749999999999985789","0","0","0","0","1","0","0","360","0","0","0","0","0","3","-3","3","0","0","3","0","0","1","0","0","-1","Arc5.png"
"6.4.2","Cannonball Task","1","2021-10-01","17:13:28","InstructionBlock","mainloop","","0","0","0.8599999999999999867","2","1","18.7749999999999985789","0","0","0","0","1","0","0","360","0","0","0","0","0","3","-3","3","0","0","3","0","1","1","0","0","-1","Arc5.png"
"6.4.2","Cannonball Task","1","2021-10-01","17:13:28","InstructionBlock","placeshield_mouse","","0","0","0.8599999999999999867","2","1","18.7749999999999985789","0","0","0","0","1","0","0","1.3770371937727443612","360","1313","0","0","0","3","-3","3","0","0","3","0","1","1","0","0","-1","Arc5.png"
"6.4.2","Cannonball Task","1","2021-10-01","17:13:28","InstructionBlock","revealshield","","0","0","0.8599999999999999867","2","1","18.7749999999999985789","0","0","0","0","1","0","0","1.3770371937727443612","360","1313","0","0","0","19.877037193772743251","-17.122962806227256749","3","1.3770371937727645673","0","37","0","1","1","1","2","1","Arc37.png"
"6.4.2","Cannonball Task","1","2021-10-01","17:13:28","InstructionBlock","cannon_outcome","","0","0","0.8599999999999999867","2","1","18.7749999999999985789","0","0","0","0","1","0","0","1.3770371937727443612","360","1313","1","0","0","19.877037193772743251","342.8770371937727645673","5","1.3770371937727645673","0","37","0","1","1","1","2","1","Arc37.png"
"6.4.2","Cannonball Task","1","2021-10-01","17:13:28","InstructionBlock","mainloop","","0","0","0.8599999999999999867","2","1","18.7749999999999985789","0","0","0","0","1","0","0","1.3770371937727443612","360","1313","1","0","0","19.877037193772743251","342.8770371937727645673","5","1.3770371937727645673","0","37","0","1","1","1","2","1","Arc37.png"
"6.4.2","Cannonball Task","1","2021-10-01","17:13:28","InstructionBlock","placeshield_mouse","","0","0","0.8599999999999999867","2","1","18.7749999999999985789","0","0","0","0","1","0","0","1.3510650827196373225","1.3770371937727443612","352","1","0","0","19.877037193772743251","342.8770371937727645673","5","1.3770371937727645673","0","37","0","0","0","1","2","1","Arc37.png"
"6.4.2","Cannonball Task","1","2021-10-01","17:13:28","InstructionBlock","revealshield","","0","0","0.8599999999999999867","2","1","18.7749999999999985789","0","0","0","0","1","0","0","1.3510650827196373225","1.3770371937727443612","352","1","0","0","30.8510650827196357682","-28.1489349172803642318","5","0.0259721110531070387","0","59","0","1","0","1","1","1","Arc59.png"
"6.4.2","Cannonball Task","1","2021-10-01","17:13:28","InstructionBlock","cannon_outcome","","0","0","0.8599999999999999867","2","1","18.7749999999999985789","0","0","0","0","1","0","0","1.3510650827196373225","1.3770371937727443612","352","2","0","0","30.8510650827196357682","331.8510650827196286627","5","0.0259721110531070387","0","59","0","1","0","1","1","1","Arc59.png"
"6.4.2","Cannonball Task","1","2021-10-01","17:13:28","InstructionBlock","PracticeBlock_CannonMoves","","0","0","0.8599999999999999867","3","1","18.7749999999999985789","0","0","0","0","1","0","0","1.3510650827196373225","1.3770371937727443612","352","2","0","0","30.8510650827196357682","331.8510650827196286627","5","0.0259721110531070387","0","59","0","1","0","1","1","1","Arc59.png"
"6.4.2","Cannonball Task","1","2021-10-01","17:13:28","InstructionBlock","PracticeBlock_CannonNotAccurate","","0","0","0.8599999999999999867","3","1","18.7749999999999985789","0","0","0","0","1","0","0","1.3510650827196373225","1.3770371937727443612","352","2","0","0","30.8510650827196357682","331.8510650827196286627","5","0.0259721110531070387","0","59","0","1","0","1","1","1","Arc59.png"
"6.4.2","Cannonball Task","1","2021-10-01","17:13:28","InstructionBlock","ClicktoContinue","","0","0","0.8599999999999999867","3","1","18.7749999999999985789","0","0","0","0","1","0","0","1.3510650827196373225","1.3770371937727443612","352","2","0","0","30.8510650827196357682","331.8510650827196286627","5","0.0259721110531070387","0","59","0","1","0","1","1","1","Arc59.png"
"6.4.2","Cannonball Task","1","2021-10-01","17:13:28","InstructionBlock","mainloop","","0","0","0.8599999999999999867","3","1","18.7749999999999985789","0","0","0","0","1","186.4059857154279029601","186.4059857154279029601","1.3510650827196373225","1.3770371937727443612","352","2","0","0","30.8510650827196357682","331.8510650827196286627","5","0.0259721110531070387","0","59","0","1","0","1","1","1","Arc59.png"
"6.4.2","Cannonball Task","1","2021-10-01","17:13:28","InstructionBlock","placeshield_mouse","","0","0","0.8599999999999999867","3","1","18.7749999999999985789","0","0","0","0","1","186.4059857154279029601","186.4059857154279029601","187.1909114084203906714","1.3510650827196373225","1090","2","0","0","30.8510650827196357682","331.8510650827196286627","5","0.0259721110531070387","0","59","0","1","1","1","1","1","Arc59.png"
"6.4.2","Cannonball Task","1","2021-10-01","17:13:28","InstructionBlock","revealshield","","0","0","0.8599999999999999867","3","1","18.7749999999999985789","0","0","0","0","1","186.4059857154279029601","186.4059857154279029601","187.1909114084203906714","1.3510650827196373225","1090","2","0","0","211.6909114084203906714","162.6909114084203906714","5","174.1601536742992379914","0","49","0","1","1","1","1","1","Arc49.png"
"6.4.2","Cannonball Task","1","2021-10-01","17:13:28","InstructionBlock","cannon_outcome","","0","0","0.8599999999999999867","3","1","18.7749999999999985789","0","0","0","0","1","186.4059857154279029601","186.4059857154279029601","187.1909114084203906714","1.3510650827196373225","1090","3","0","0","211.6909114084203906714","162.6909114084203906714","5","174.1601536742992379914","0","49","0","1","1","1","1","1","Arc49.png"
"6.4.2","Cannonball Task","1","2021-10-01","17:13:28","InstructionBlock","mainloop","","0","0","0.8599999999999999867","3","1","18.7749999999999985789","0","0","0","0","1","132.3556562635012880946","132.3556562635012880946","187.1909114084203906714","1.3510650827196373225","1090","3","0","0","211.6909114084203906714","162.6909114084203906714","5","174.1601536742992379914","0","49","0","0","1","1","1","1","Arc49.png"
"6.4.2","Cannonball Task","1","2021-10-01","17:13:28","InstructionBlock","placeshield_mouse","","0","0","0.8599999999999999867","3","1","18.7749999999999985789","0","0","0","0","1","132.3556562635012880946","132.3556562635012880946","130.8608107442738059945","187.1909114084203906714","806","3","0","0","211.6909114084203906714","162.6909114084203906714","5","174.1601536742992379914","0","49","0","0","0","1","1","1","Arc49.png"
"6.4.2","Cannonball Task","1","2021-10-01","17:13:28","InstructionBlock","revealshield","","0","0","0.8599999999999999867","3","1","18.7749999999999985789","0","0","0","0","1","132.3556562635012880946","132.3556562635012880946","130.8608107442738059945","187.1909114084203906714","806","3","0","0","158.8608107442738059945","102.8608107442738059945","5","56.3301006641465846769","0","56","0","1","0","1","2","1","Arc56.png"
"6.4.2","Cannonball Task","1","2021-10-01","17:13:28","InstructionBlock","cannon_outcome","","0","0","0.8599999999999999867","3","1","18.7749999999999985789","0","0","0","0","1","132.3556562635012880946","132.3556562635012880946","130.8608107442738059945","187.1909114084203906714","806","4","0","0","158.8608107442738059945","102.8608107442738059945","5","56.3301006641465846769","0","56","0","1","0","1","2","1","Arc56.png"
"6.4.2","Cannonball Task","1","2021-10-01","17:13:28","InstructionBlock","mainloop","","0","0","0.8599999999999999867","3","1","18.7749999999999985789","0","0","0","0","1","204.2407460706869244405","204.2407460706869244405","130.8608107442738059945","187.1909114084203906714","806","4","0","0","158.8608107442738059945","102.8608107442738059945","5","56.3301006641465846769","0","56","0","1","0","1","2","1","Arc56.png"
"6.4.2","Cannonball Task","1","2021-10-01","17:13:28","InstructionBlock","placeshield_mouse","","0","0","0.8599999999999999867","3","1","18.7749999999999985789","0","0","0","0","1","204.2407460706869244405","204.2407460706869244405","209.0806121678823501497","130.8608107442738059945","1256","4","0","0","158.8608107442738059945","102.8608107442738059945","5","56.3301006641465846769","0","56","0","1","1","1","2","1","Arc56.png"
"6.4.2","Cannonball Task","1","2021-10-01","17:13:28","InstructionBlock","revealshield","","0","0","0.8599999999999999867","3","1","18.7749999999999985789","0","0","0","0","1","204.2407460706869244405","204.2407460706869244405","209.0806121678823501497","130.8608107442738059945","1256","4","0","0","231.0806121678823501497","187.0806121678823501497","5","78.2198014236085441553","0","44","0","1","1","1","1","1","Arc44.png"
"6.4.2","Cannonball Task","1","2021-10-01","17:13:28","InstructionBlock","cannon_outcome","","0","0","0.8599999999999999867","3","1","18.7749999999999985789","0","0","0","0","1","204.2407460706869244405","204.2407460706869244405","209.0806121678823501497","130.8608107442738059945","1256","5","0","0","231.0806121678823501497","187.0806121678823501497","5","78.2198014236085441553","0","44","0","1","1","1","1","1","Arc44.png"
"6.4.2","Cannonball Task","1","2021-10-01","17:13:28","InstructionBlock","EndPractice","","CHANGEPOINT","0","0.8599999999999999867","4","1","18.7749999999999985789","0","0","0","0","1","204.2407460706869244405","204.2407460706869244405","209.0806121678823501497","130.8608107442738059945","1256","0","0","2.5","231.0806121678823501497","187.0806121678823501497","5","78.2198014236085441553","0","44","2.5","1","1","1","1","1","Arc44.png"
"6.4.2","Cannonball Task","1","2021-10-01","17:13:28","InstructionBlock","EndPractice","","CHANGEPOINT","0","0.8599999999999999867","4","1","18.7749999999999985789","0","0","0","0","1","204.2407460706869244405","204.2407460706869244405","209.0806121678823501497","130.8608107442738059945","1256","0","0","2.5","231.0806121678823501497","187.0806121678823501497","5","78.2198014236085441553","0","44","0","1","1","1","1","1","Arc44.png"
"6.4.2","Cannonball Task","1","2021-10-01","17:13:28","InstructionBlock","EndPractice","","CHANGEPOINT","0","0.8599999999999999867","4","1","18.7749999999999985789","0","0","0","0","1","204.2407460706869244405","204.2407460706869244405","209.0806121678823501497","130.8608107442738059945","1256","0","0","2.5","231.0806121678823501497","187.0806121678823501497","5","78.2198014236085441553","0","44","0","1","1","1","1","1","Arc44.png"
"6.4.2","Cannonball Task","1","2021-10-01","17:13:28","begin_round","Phase_starts","ODDBALL","ODDBALL","BLUE","0.8599999999999999867","4","1","18.7749999999999985789","0","0","0","0","1","204.2407460706869244405","204.2407460706869244405","209.0806121678823501497","130.8608107442738059945","1256","0","0","2.5","231.0806121678823501497","187.0806121678823501497","5","78.2198014236085441553","0","44","0","1","1","1","1","1","Arc44.png"
"6.4.2","Cannonball Task","1","2021-10-01","17:13:28","begin_round","mainloop","ODDBALL","ODDBALL","BLUE","0.8599999999999999867","4","1","18.7749999999999985789","0","0","0","0","1","206.9377518045427564175","200.2670130982003513509","209.0806121678823501497","130.8608107442738059945","1256","0","0","2.5","231.0806121678823501497","187.0806121678823501497","5","78.2198014236085441553","0","44","0","1","1","1","1","1","Arc44.png"
"6.4.2","Cannonball Task","1","2021-10-01","17:13:28","begin_round","placeshield_mouse","ODDBALL","ODDBALL","BLUE","0.8599999999999999867","4","1","18.7749999999999985789","0","0","0","0","1","206.9377518045427564175","200.2670130982003513509","207.810415443846324024","209.0806121678823501497","1075","0","0","2.5","231.0806121678823501497","187.0806121678823501497","5","78.2198014236085441553","0","44","0","1","1","1","1","1","Arc44.png"
"6.4.2","Cannonball Task","1","2021-10-01","17:13:28","begin_round","revealshield","ODDBALL","ODDBALL","BLUE","0.8599999999999999867","4","1","18.7749999999999985789","0","0","0","0","1","206.9377518045427564175","200.2670130982003513509","207.810415443846324024","209.0806121678823501497","1075","0","0","2.5","221.810415443846324024","193.810415443846324024","5","1.2701967240360261258","0","28","0","1","1","1","2","1","Arc28.png"
"6.4.2","Cannonball Task","1","2021-10-01","17:13:28","begin_round","cannon_outcome","ODDBALL","ODDBALL","BLUE","0.8599999999999999867","4","1","18.7749999999999985789","0","0","0","0","1","206.9377518045427564175","200.2670130982003513509","207.810415443846324024","209.0806121678823501497","1075","1","0","2.5","221.810415443846324024","193.810415443846324024","5","1.2701967240360261258","0","28","0","1","1","1","2","1","Arc28.png"
"6.4.2","Cannonball Task","1","2021-10-01","17:13:28","begin_round","mainloop","ODDBALL","ODDBALL","BLUE","0.8599999999999999867","4","1","18.7749999999999985789","0","0","0","0","1","198.7465484974581499955","239.3674918314584374457","207.810415443846324024","209.0806121678823501497","1075","1","0","2.5","221.810415443846324024","193.810415443846324024","5","1.2701967240360261258","0","28","0","0","1","1","2","1","Arc28.png"
"6.4.2","Cannonball Task","1","2021-10-01","17:13:28","begin_round","placeshield_mouse","ODDBALL","ODDBALL","BLUE","0.8599999999999999867","4","1","18.7749999999999985789","0","0","0","0","1","198.7465484974581499955","239.3674918314584374457","204.8330931244362318466","207.810415443846324024","680","1","0","2.5","221.810415443846324024","193.810415443846324024","5","1.2701967240360261258","0","28","0","0","0","1","2","1","Arc28.png"
"6.4.2","Cannonball Task","1","2021-10-01","17:13:28","begin_round","revealshield","ODDBALL","ODDBALL","BLUE","0.8599999999999999867","4","1","18.7749999999999985789","0","0","0","0","1","198.7465484974581499955","239.3674918314584374457","204.8330931244362318466","207.810415443846324024","680","1","0","2.5","211.3330931244362318466","198.3330931244362318466","5","2.9773223194100921773","0","13","0","1","0","1","3","1","Arc13.png"
"6.4.2","Cannonball Task","1","2021-10-01","17:13:28","begin_round","cannon_outcome","ODDBALL","ODDBALL","BLUE","0.8599999999999999867","4","1","18.7749999999999985789","0","0","0","0","0","198.7465484974581499955","239.3674918314584374457","204.8330931244362318466","207.810415443846324024","680","1","1","2.5","211.3330931244362318466","198.3330931244362318466","6","2.9773223194100921773","0","13","0","1","0","1","3","1","Arc13.png"
"6.4.2","Cannonball Task","1","2021-10-01","17:13:28","begin_round","mainloop","ODDBALL","ODDBALL","BLUE","0.8599999999999999867","4","1","18.7749999999999985789","0","0","0","0","0","206.4501480358069045451","199.9632911114619844284","204.8330931244362318466","207.810415443846324024","680","1","1","2.5","211.3330931244362318466","198.3330931244362318466","6","2.9773223194100921773","0","13","0","1","0","1","3","1","Arc13.png"
"6.4.2","Cannonball Task","1","2021-10-01","17:13:28","begin_round","placeshield_mouse","ODDBALL","ODDBALL","BLUE","0.8599999999999999867","4","1","18.7749999999999985789","0","0","0","0","0","206.4501480358069045451","199.9632911114619844284","205.7189724773388661561","204.8330931244362318466","424","1","1","2.5","211.3330931244362318466","198.3330931244362318466","6","2.9773223194100921773","0","13","0","2","2","1","3","1","Arc13.png"
"6.4.2","Cannonball Task","1","2021-10-01","17:13:28","begin_round","revealshield","ODDBALL","ODDBALL","BLUE","0.8599999999999999867","4","1","18.7749999999999985789","0","0","0","0","0","206.4501480358069045451","199.9632911114619844284","205.7189724773388661561","204.8330931244362318466","424","1","1","2.5","219.2189724773388661561","192.2189724773388661561","6","0.8858793529026343094","0","27","0","1","2","1","0","1","Arc27.png"
"6.4.2","Cannonball Task","1","2021-10-01","17:13:28","begin_round","cannon_outcome","ODDBALL","ODDBALL","BLUE","0.8599999999999999867","4","1","18.7749999999999985789","0","0","0","0","1","206.4501480358069045451","199.9632911114619844284","205.7189724773388661561","204.8330931244362318466","424","2","1","2.5","219.2189724773388661561","192.2189724773388661561","5","0.8858793529026343094","0","27","0","1","2","1","0","1","Arc27.png"
"6.4.2","Cannonball Task","1","2021-10-01","17:13:28","begin_round","mainloop","ODDBALL","ODDBALL","BLUE","0.8599999999999999867","4","1","18.7749999999999985789","0","0","0","0","1","206.0945867739533241547","208.8959779283782438597","205.7189724773388661561","204.8330931244362318466","424","2","1","2.5","219.2189724773388661561","192.2189724773388661561","5","0.8858793529026343094","0","27","0","1","2","1","0","1","Arc27.png"
"6.4.2","Cannonball Task","1","2021-10-01","17:13:28","begin_round","placeshield_mouse","ODDBALL","ODDBALL","BLUE","0.8599999999999999867","4","1","18.7749999999999985789","0","0","0","0","1","206.0945867739533241547","208.8959779283782438597","205.4749881788650043291","205.7189724773388661561","364","2","1","2.5","219.2189724773388661561","192.2189724773388661561","5","0.8858793529026343094","0","27","0","0","0","1","0","1","Arc27.png"
"6.4.2","Cannonball Task","1","2021-10-01","17:13:28","begin_round","revealshield","ODDBALL","ODDBALL","BLUE","0.8599999999999999867","4","1","18.7749999999999985789","0","0","0","0","1","206.0945867739533241547","208.8959779283782438597","205.4749881788650043291","205.7189724773388661561","364","2","1","2.5","228.9749881788650043291","181.9749881788650043291","5","0.243984298473861827","0","47","0","1","0","1","2","1","Arc47.png"
"6.4.2","Cannonball Task","1","2021-10-01","17:13:28","begin_round","cannon_outcome","ODDBALL","ODDBALL","BLUE","0.8599999999999999867","4","1","18.7749999999999985789","0","0","0","0","1","206.0945867739533241547","208.8959779283782438597","205.4749881788650043291","205.7189724773388661561","364","3","1","2.5","228.9749881788650043291","181.9749881788650043291","5","0.243984298473861827","0","47","0","1","0","1","2","1","Arc47.png"
"6.4.2","Cannonball Task","1","2021-10-01","17:13:28","begin_round","EndPracticePhase","ODDBALL","ODDBALL","BLUE","0.8599999999999999867","5","1","18.7749999999999985789","0","0","0","0","1","206.0945867739533241547","208.8959779283782438597","205.4749881788650043291","205.7189724773388661561","364","3","1","4","228.9749881788650043291","181.9749881788650043291","5","0.243984298473861827","0","47","1.5","1","0","1","2","1","Arc47.png"
"6.4.2","Cannonball Task","1","2021-10-01","17:13:28","begin_round","PracticeBlock_CannonNotVisible","ODDBALL","ODDBALL","BLUE","0.8599999999999999867","5","2","18.7749999999999985789","0","1","0","0","1","229.5759152689892630406","208.8959779283782438597","205.4749881788650043291","205.7189724773388661561","364","3","1","4","228.9749881788650043291","181.9749881788650043291","5","0.243984298473861827","0","47","1.5","1","0","1","2","1","Arc47.png"
"6.4.2","Cannonball Task","1","2021-10-01","17:13:28","begin_round","mainloop","ODDBALL","ODDBALL","BLUE","0.8599999999999999867","5","2","18.7749999999999985789","0","1","0","0","1","229.4461371472225721391","215.8897758193073457278","205.4749881788650043291","205.7189724773388661561","364","3","1","4","228.9749881788650043291","181.9749881788650043291","5","0.243984298473861827","0","47","1.5","0","0","1","2","1","Arc47.png"
"6.4.2","Cannonball Task","1","2021-10-01","17:13:28","begin_round","placeshield_mouse","ODDBALL","ODDBALL","BLUE","0.8599999999999999867","5","2","18.7749999999999985789","0","1","0","0","1","229.4461371472225721391","215.8897758193073457278","192.7071135013165985583","205.4749881788650043291","1277","3","1","4","228.9749881788650043291","181.9749881788650043291","5","0.243984298473861827","0","47","1.5","1","1","1","2","1","Arc47.png"
"6.4.2","Cannonball Task","1","2021-10-01","17:13:28","begin_round","revealshield","ODDBALL","ODDBALL","BLUE","0.8599999999999999867","5","2","18.7749999999999985789","0","1","0","0","1","229.4461371472225721391","215.8897758193073457278","192.7071135013165985583","205.4749881788650043291","1277","3","1","4","222.7071135013165985583","162.7071135013165985583","5","12.7678746775484057707","0","60","1.5","1","1","1","0","1","Arc60.png"
"6.4.2","Cannonball Task","1","2021-10-01","17:13:28","begin_round","cannon_outcome","ODDBALL","ODDBALL","BLUE","0.8599999999999999867","5","2","18.7749999999999985789","0","1","0","0","1","229.4461371472225721391","215.8897758193073457278","192.7071135013165985583","205.4749881788650043291","1277","4","1","4","222.7071135013165985583","162.7071135013165985583","5","12.7678746775484057707","0","60","1.5","1","1","1","0","1","Arc60.png"
"6.4.2","Cannonball Task","1","2021-10-01","17:13:28","begin_round","mainloop","ODDBALL","ODDBALL","BLUE","0.8599999999999999867","5","2","18.7749999999999985789","0","1","0","0","1","232.9843182812128929982","206.3312431835351503651","192.7071135013165985583","205.4749881788650043291","1277","4","1","4","222.7071135013165985583","162.7071135013165985583","5","12.7678746775484057707","0","60","1.5","1","1","1","0","1","Arc60.png"
"6.4.2","Cannonball Task","1","2021-10-01","17:13:28","begin_round","placeshield_mouse","ODDBALL","ODDBALL","BLUE","0.8599999999999999867","5","2","18.7749999999999985789","0","1","0","0","1","232.9843182812128929982","206.3312431835351503651","210.6997225508144140349","192.7071135013165985583","395","4","1","4","222.7071135013165985583","162.7071135013165985583","5","12.7678746775484057707","0","60","1.5","1","1","1","0","1","Arc60.png"
"6.4.2","Cannonball Task","1","2021-10-01","17:13:28","begin_round","revealshield","ODDBALL","ODDBALL","BLUE","0.8599999999999999867","5","2","18.7749999999999985789","0","1","0","0","1","232.9843182812128929982","206.3312431835351503651","210.6997225508144140349","192.7071135013165985583","395","4","1","4","230.1997225508144140349","191.1997225508144140349","5","17.9926090494978154766","0","39","1.5","1","1","1","1","1","Arc39.png"
"6.4.2","Cannonball Task","1","2021-10-01","17:13:28","begin_round","cannon_outcome","ODDBALL","ODDBALL","BLUE","0.8599999999999999867","5","2","18.7749999999999985789","0","1","0","0","1","232.9843182812128929982","206.3312431835351503651","210.6997225508144140349","192.7071135013165985583","395","5","1","4","230.1997225508144140349","191.1997225508144140349","5","17.9926090494978154766","0","39","1.5","1","1","1","1","1","Arc39.png"
"6.4.2","Cannonball Task","1","2021-10-01","17:13:28","begin_round","mainloop","ODDBALL","ODDBALL","BLUE","0.8599999999999999867","5","2","18.7749999999999985789","0","1","0","0","1","232.5230969773483877816","216.634627389520090901","210.6997225508144140349","192.7071135013165985583","395","5","1","4","230.1997225508144140349","191.1997225508144140349","5","17.9926090494978154766","0","39","1.5","0","1","1","1","1","Arc39.png"
"6.4.2","Cannonball Task","1","2021-10-01","17:13:28","begin_round","placeshield_mouse","ODDBALL","ODDBALL","BLUE","0.8599999999999999867","5","2","18.7749999999999985789","0","1","0","0","1","232.5230969773483877816","216.634627389520090901","210.6997225508144140349","210.6997225508144140349","308","5","1","4","230.1997225508144140349","191.1997225508144140349","5","17.9926090494978154766","0","39","1.5","1","1","1","1","1","Arc39.png"
"6.4.2","Cannonball Task","1","2021-10-01","17:13:28","begin_round","revealshield","ODDBALL","ODDBALL","BLUE","0.8599999999999999867","5","2","18.7749999999999985789","0","1","0","0","1","232.5230969773483877816","216.634627389520090901","210.6997225508144140349","210.6997225508144140349","308","5","1","4","237.6997225508144140349","183.6997225508144140349","5","0","0","54","1.5","1","1","1","1","1","Arc54.png"
"6.4.2","Cannonball Task","1","2021-10-01","17:13:28","begin_round","cannon_outcome","ODDBALL","ODDBALL","BLUE","0.8599999999999999867","5","2","18.7749999999999985789","0","1","0","0","1","232.5230969773483877816","216.634627389520090901","210.6997225508144140349","210.6997225508144140349","308","6","1","4","237.6997225508144140349","183.6997225508144140349","5","0","0","54","1.5","1","1","1","1","1","Arc54.png"
"6.4.2","Cannonball Task","1","2021-10-01","17:13:28","MainBlock","Phase_starts","ODDBALL","ODDBALL","BLUE","0.8599999999999999867","6","2","18.7749999999999985789","1","0","0","0","1","122.021984858909149807","216.634627389520090901","210.6997225508144140349","210.6997225508144140349","308","0","0","7","237.6997225508144140349","183.6997225508144140349","5","0","0","54","3","1","1","1","1","1","Arc54.png"
"6.4.2","Cannonball Task","1","2021-10-01","17:13:28","MainBlock","mainloop","ODDBALL","ODDBALL","BLUE","0.8599999999999999867","6","2","18.7749999999999985789","1","1","0","1","1","125.371312928370414852","114.0233877144442118379","210.6997225508144140349","210.6997225508144140349","308","0","0","7","237.6997225508144140349","183.6997225508144140349","5","0","0","54","3","10","1","1","1","1","Arc54.png"
"6.4.2","Cannonball Task","1","2021-10-01","17:13:28","MainBlock","placeshield_mouse","ODDBALL","ODDBALL","BLUE","0.8599999999999999867","6","2","18.7749999999999985789","1","1","0","1","1","125.371312928370414852","114.0233877144442118379","4.3987053549955312803","210.6997225508144140349","988","0","0","7","237.6997225508144140349","183.6997225508144140349","5","0","0","54","3","1","1","1","1","1","Arc54.png"
"6.4.2","Cannonball Task","1","2021-10-01","17:13:28","MainBlock","revealshield","ODDBALL","ODDBALL","BLUE","0.8599999999999999867","6","2","18.7749999999999985789","1","1","0","1","1","125.371312928370414852","114.0233877144442118379","4.3987053549955312803","210.6997225508144140349","988","0","0","7","30.3987053549955312803","-21.6012946450044687197","5","153.6989828041811279036","0","52","3","1","1","1","2","1","Arc52.png"
"6.4.2","Cannonball Task","1","2021-10-01","17:13:28","MainBlock","cannon_outcome","ODDBALL","ODDBALL","BLUE","0.8599999999999999867","6","2","18.7749999999999985789","1","1","0","1","0","125.371312928370414852","114.0233877144442118379","4.3987053549955312803","210.6997225508144140349","988","0","1","7","30.3987053549955312803","338.3987053549955135168","6","153.6989828041811279036","0","52","3","1","1","1","2","1","Arc52.png"
"6.4.2","Cannonball Task","1","2021-10-01","17:13:28","MainBlock","mainloop","ODDBALL","ODDBALL","BLUE","0.8599999999999999867","6","2","18.7749999999999985789","1","2","0","2","0","127.3065482299411002032","87.6562388436226456179","4.3987053549955312803","210.6997225508144140349","988","0","1","7","30.3987053549955312803","338.3987053549955135168","6","153.6989828041811279036","0","52","3","1","1","1","2","1","Arc52.png"
"6.4.2","Cannonball Task","1","2021-10-01","17:13:28","MainBlock","placeshield_mouse","ODDBALL","ODDBALL","BLUE","0.8599999999999999867","6","2","18.7749999999999985789","1","2","0","2","0","127.3065482299411002032","87.6562388436226456179","4.3987053549955312803","4.3987053549955312803","40","0","1","7","30.3987053549955312803","338.3987053549955135168","6","153.6989828041811279036","0","52","3","0","0","1","2","1","Arc52.png"
"6.4.2","Cannonball Task","1","2021-10-01","17:13:28","MainBlock","revealshield","ODDBALL","ODDBALL","BLUE","0.8599999999999999867","6","2","18.7749999999999985789","1","2","0","2","0","127.3065482299411002032","87.6562388436226456179","4.3987053549955312803","4.3987053549955312803","40","0","1","7","16.8987053549955312803","-8.1012946450044687197","6","0","0","25","3","1","0","1","1","1","Arc25.png"
"6.4.2","Cannonball Task","1","2021-10-01","17:13:28","MainBlock","cannon_outcome","ODDBALL","ODDBALL","BLUE","0.8599999999999999867","6","2","18.7749999999999985789","1","2","0","2","0","127.3065482299411002032","87.6562388436226456179","4.3987053549955312803","4.3987053549955312803","40","0","2","7","16.8987053549955312803","351.8987053549955135168","6","0","0","25","3","1","0","1","1","1","Arc25.png"
"6.4.2","Cannonball Task","1","2021-10-01","17:13:28","MainBlock","mainloop","ODDBALL","ODDBALL","BLUE","0.8599999999999999867","6","2","18.7749999999999985789","1","3","0","3","0","126.801913153925994493","114.4583638693687106525","4.3987053549955312803","4.3987053549955312803","40","0","2","7","16.8987053549955312803","351.8987053549955135168","6","0","0","25","3","1","0","1","1","1","Arc25.png"
"6.4.2","Cannonball Task","1","2021-10-01","17:13:28","MainBlock","placeshield_mouse","ODDBALL","ODDBALL","BLUE","0.8599999999999999867","6","2","18.7749999999999985789","1","3","0","3","0","126.801913153925994493","114.4583638693687106525","4.3987053549955312803","4.3987053549955312803","336","0","2","7","16.8987053549955312803","351.8987053549955135168","6","0","0","25","3","1","1","1","1","1","Arc25.png"
"6.4.2","Cannonball Task","1","2021-10-01","17:13:28","MainBlock","revealshield","ODDBALL","ODDBALL","BLUE","0.8599999999999999867","6","2","18.7749999999999985789","1","3","0","3","0","126.801913153925994493","114.4583638693687106525","4.3987053549955312803","4.3987053549955312803","336","0","2","7","20.8987053549955312803","-12.1012946450044687197","6","0","0","33","3","1","1","1","1","1","Arc33.png"
"6.4.2","Cannonball Task","1","2021-10-01","17:13:28","MainBlock","cannon_outcome","ODDBALL","ODDBALL","BLUE","0.8599999999999999867","6","2","18.7749999999999985789","1","3","0","3","0","126.801913153925994493","114.4583638693687106525","4.3987053549955312803","4.3987053549955312803","336","0","3","7","20.8987053549955312803","347.8987053549955135168","6","0","0","33","3","1","1","1","1","1","Arc33.png"
"6.4.2","Cannonball Task","1","2021-10-01","17:13:28","MainBlock","mainloop","ODDBALL","ODDBALL","BLUE","0.8599999999999999867","6","2","18.7749999999999985789","1","4","0","4","0","123.4199136976549340261","83.2501737509932269177","4.3987053549955312803","4.3987053549955312803","336","0","3","7","20.8987053549955312803","347.8987053549955135168","6","0","0","33","3","1","1","1","1","1","Arc33.png"
"6.4.2","Cannonball Task","1","2021-10-01","17:13:28","MainBlock","placeshield_mouse","ODDBALL","ODDBALL","BLUE","0.8599999999999999867","6","2","18.7749999999999985789","1","4","0","4","0","123.4199136976549340261","83.2501737509932269177","4.3987053549955312803","4.3987053549955312803","182","0","3","7","20.8987053549955312803","347.8987053549955135168","6","0","0","33","3","1","1","1","1","1","Arc33.png"
"6.4.2","Cannonball Task","1","2021-10-01","17:13:28","MainBlock","revealshield","ODDBALL","ODDBALL","BLUE","0.8599999999999999867","6","2","18.7749999999999985789","1","4","0","4","0","123.4199136976549340261","83.2501737509932269177","4.3987053549955312803","4.3987053549955312803","182","0","3","7","13.8987053549955312803","-5.1012946450044687197","6","0","0","19","3","1","1","1","2","1","Arc19.png"
"6.4.2","Cannonball Task","1","2021-10-01","17:13:28","MainBlock","cannon_outcome","ODDBALL","ODDBALL","BLUE","0.8599999999999999867","6","2","18.7749999999999985789","1","4","0","4","0","123.4199136976549340261","83.2501737509932269177","4.3987053549955312803","4.3987053549955312803","182","0","0","7","13.8987053549955312803","354.8987053549955135168","6","0","0","19","3","1","1","1","2","1","Arc19.png"
"6.4.2","Cannonball Task","1","2021-10-01","17:13:28","MainBlock","mainloop","ODDBALL","ODDBALL","BLUE","0.8599999999999999867","6","2","18.7749999999999985789","1","5","0","5","0","122.4362321689939676617","130.485911016876997337","4.3987053549955312803","4.3987053549955312803","182","0","0","7","13.8987053549955312803","354.8987053549955135168","6","0","0","19","3","0","1","1","2","1","Arc19.png"
"6.4.2","Cannonball Task","1","2021-10-01","17:13:28","MainBlock","placeshield_mouse","ODDBALL","ODDBALL","BLUE","0.8599999999999999867","6","2","18.7749999999999985789","1","5","0","5","0","122.4362321689939676617","130.485911016876997337","4.3987053549955312803","4.3987053549955312803","156","0","0","7","13.8987053549955312803","354.8987053549955135168","6","0","0","19","3","1","1","1","2","1","Arc19.png"
"6.4.2","Cannonball Task","1","2021-10-01","17:13:28","MainBlock","revealshield","ODDBALL","ODDBALL","BLUE","0.8599999999999999867","6","2","18.7749999999999985789","1","5","0","5","0","122.4362321689939676617","130.485911016876997337","4.3987053549955312803","4.3987053549955312803","156","0","0","7","24.3987053549955312803","-15.6012946450044687197","6","0","0","40","3","1","1","1","1","1","Arc40.png"
"6.4.2","Cannonball Task","1","2021-10-01","17:13:28","MainBlock","cannon_outcome","ODDBALL","ODDBALL","BLUE","0.8599999999999999867","6","2","18.7749999999999985789","1","5","0","5","0","122.4362321689939676617","130.485911016876997337","4.3987053549955312803","4.3987053549955312803","156","0","1","7","24.3987053549955312803","344.3987053549955135168","6","0","0","40","3","1","1","1","1","1","Arc40.png"
"6.4.2","Cannonball Task","1","2021-10-01","17:13:28","MainBlock","mainloop","ODDBALL","ODDBALL","BLUE","0.8599999999999999867","6","2","18.7749999999999985789","1","6","0","6","0","125.8623132706701426287","132.9996083673415796511","4.3987053549955312803","4.3987053549955312803","156","0","1","7","24.3987053549955312803","344.3987053549955135168","6","0","0","40","3","1","1","1","1","1","Arc40.png"
"6.4.2","Cannonball Task","1","2021-10-01","17:13:28","MainBlock","placeshield_mouse","ODDBALL","ODDBALL","BLUE","0.8599999999999999867","6","2","18.7749999999999985789","1","6","0","6","0","125.8623132706701426287","132.9996083673415796511","128.9699911917185488619","4.3987053549955312803","645","0","1","7","24.3987053549955312803","344.3987053549955135168","6","0","0","40","3","1","1","1","1","1","Arc40.png"
"6.4.2","Cannonball Task","1","2021-10-01","17:13:28","MainBlock","revealshield","ODDBALL","ODDBALL","BLUE","0.8599999999999999867","6","2","18.7749999999999985789","1","6","0","6","0","125.8623132706701426287","132.9996083673415796511","128.9699911917185488619","4.3987053549955312803","645","0","1","7","131.9699911917185488619","125.9699911917185488619","6","124.5712858367230211343","0","6","3","1","1","1","1","1","Arc6.png"
"6.4.2","Cannonball Task","1","2021-10-01","17:13:28","MainBlock","cannon_outcome","ODDBALL","ODDBALL","BLUE","0.8599999999999999867","6","2","18.7749999999999985789","1","6","0","6","0","125.8623132706701426287","132.9996083673415796511","128.9699911917185488619","4.3987053549955312803","645","0","2","7","131.9699911917185488619","125.9699911917185488619","6","124.5712858367230211343","0","6","3","1","1","1","1","1","Arc6.png"
"6.4.2","Cannonball Task","1","2021-10-01","17:13:28","MainBlock","mainloop","ODDBALL","ODDBALL","BLUE","0.8599999999999999867","6","2","18.7749999999999985789","1","7","0","7","0","125.5182435433319767526","117.6479757172637903295","128.9699911917185488619","4.3987053549955312803","645","0","2","7","131.9699911917185488619","125.9699911917185488619","6","124.5712858367230211343","0","6","3","0","1","1","1","1","Arc6.png"
"6.4.2","Cannonball Task","1","2021-10-01","17:13:28","MainBlock","placeshield_mouse","ODDBALL","ODDBALL","BLUE","0.8599999999999999867","6","2","18.7749999999999985789","1","7","0","7","0","125.5182435433319767526","117.6479757172637903295","134.4052554847814917593","128.9699911917185488619","185","0","2","7","131.9699911917185488619","125.9699911917185488619","6","124.5712858367230211343","0","6","3","2","2","1","1","1","Arc6.png"
"6.4.2","Cannonball Task","1","2021-10-01","17:13:28","MainBlock","revealshield","ODDBALL","ODDBALL","BLUE","0.8599999999999999867","6","2","18.7749999999999985789","1","7","0","7","0","125.5182435433319767526","117.6479757172637903295","134.4052554847814917593","128.9699911917185488619","185","0","2","7","155.4052554847814917593","113.4052554847814917593","6","5.4352642930629428974","0","42","3","1","2","1","1","1","Arc42.png"
"6.4.2","Cannonball Task","1","2021-10-01","17:13:28","MainBlock","cannon_outcome","ODDBALL","ODDBALL","BLUE","0.8599999999999999867","6","2","18.7749999999999985789","1","7","0","7","1","125.5182435433319767526","117.6479757172637903295","134.4052554847814917593","128.9699911917185488619","185","1","2","7","155.4052554847814917593","113.4052554847814917593","5","5.4352642930629428974","0","42","3","1","2","1","1","1","Arc42.png"
"6.4.2","Cannonball Task","1","2021-10-01","17:13:28","MainBlock","mainloop","ODDBALL","ODDBALL","BLUE","0.8599999999999999867","6","2","18.7749999999999985789","1","8","0","8","1","121.5649984740405926686","128.2472127935956507372","134.4052554847814917593","128.9699911917185488619","185","1","2","7","155.4052554847814917593","113.4052554847814917593","5","5.4352642930629428974","0","42","3","1","2","1","1","1","Arc42.png"
"6.4.2","Cannonball Task","1","2021-10-01","17:13:28","MainBlock","placeshield_mouse","ODDBALL","ODDBALL","BLUE","0.8599999999999999867","6","2","18.7749999999999985789","1","8","0","8","1","121.5649984740405926686","128.2472127935956507372","120.6235820248538885835","134.4052554847814917593","244","1","2","7","155.4052554847814917593","113.4052554847814917593","5","5.4352642930629428974","0","42","3","2","2","1","1","1","Arc42.png"
"6.4.2","Cannonball Task","1","2021-10-01","17:13:28","MainBlock","revealshield","ODDBALL","ODDBALL","BLUE","0.8599999999999999867","6","2","18.7749999999999985789","1","8","0","8","1","121.5649984740405926686","128.2472127935956507372","120.6235820248538885835","134.4052554847814917593","244","1","2","7","139.6235820248538743726","101.6235820248538885835","5","13.7816734599276031759","0","38","3","1","2","1","2","1","Arc38.png"
"6.4.2","Cannonball Task","1","2021-10-01","17:13:28","MainBlock","cannon_outcome","ODDBALL","ODDBALL","BLUE","0.8599999999999999867","6","2","18.7749999999999985789","1","8","0","8","1","121.5649984740405926686","128.2472127935956507372","120.6235820248538885835","134.4052554847814917593","244","2","2","7","139.6235820248538743726","101.6235820248538885835","5","13.7816734599276031759","0","38","3","1","2","1","2","1","Arc38.png"
"6.4.2","Cannonball Task","1","2021-10-01","17:13:28","MainBlock","mainloop","ODDBALL","ODDBALL","BLUE","0.8599999999999999867","6","2","18.7749999999999985789","1","9","0","9","1","124.7717334551018097955","109.4029967912470766578","120.6235820248538885835","134.4052554847814917593","244","2","2","7","139.6235820248538743726","101.6235820248538885835","5","13.7816734599276031759","0","38","3","1","2","1","2","1","Arc38.png"
